time,seconds_elapsed,z,y,x
1682879829644700400,0.197700439453125,0.2478961944580078,-0.3020200729370117,1.3913202285766602
1682879829661591300,0.21459130859375,-0.8398919105529785,0.8089642524719238,0.5049489140510559
1682879829678456800,0.231456787109375,-1.4547085762023926,2.0478601455688477,-1.821744680404663
1682879829695329000,0.2483291015625,-1.1581902503967285,1.8430919647216797,-1.915895938873291
1682879829712205300,0.265205322265625,-1.1498069763183594,0.030296802520751953,-0.7154213190078735
1682879829729065700,0.282065673828125,-1.4545111656188965,-0.6965985298156738,-0.9165806770324707
1682879829745946400,0.2989462890625,-1.5635547637939453,-3.3064565658569336,0.34700730443000793
1682879829762819800,0.31581982421875,-1.40781831741333,-3.1097300052642822,1.307576060295105
1682879829779689700,0.332689697265625,-0.3258805274963379,-0.319399356842041,1.145536184310913
1682879829796561200,0.34956103515625,-0.2751450538635254,0.45592260360717773,0.9949929118156433
1682879829813429800,0.3664296875,-0.4221611022949219,2.888474941253662,-2.6121726036071777
1682879829830295600,0.383295654296875,-0.6099538803100586,4.230170249938965,-6.4272661209106445
1682879829847174100,0.400174072265625,-1.71983003616333,-1.5562458038330078,-0.3232010006904602
1682879829864045300,0.41704541015625,0.9666385650634766,-3.2385940551757812,1.1813833713531494
1682879829880916700,0.433916748046875,1.8362503051757812,-1.049072265625,1.0609726905822754
1682879829897789400,0.45078955078125,-0.5230026245117188,1.8907623291015625,-1.428958773612976
1682879829914657300,0.4676572265625,-2.114151954650879,1.8946833610534668,-1.6649261713027954
1682879829931527400,0.48452734375,-2.98665714263916,0.2437434196472168,-0.9067946672439575
1682879829948403500,0.501403564453125,-1.0284628868103027,-0.28435516357421875,-0.04222726821899414
1682879829965262800,0.518262939453125,-0.5946249961853027,-1.7588365077972412,0.9070848226547241
1682879829982143200,0.535143310546875,1.6998786926269531,1.3795161247253418,-0.5095692873001099
1682879829999011000,0.552010986328125,2.021883964538574,1.1281800270080566,-0.040628790855407715
1682879830015889200,0.56888916015625,0.3269214630126953,0.30483579635620117,-0.42422741651535034
1682879830032756700,0.5857568359375,0.041657447814941406,0.9577064514160156,-1.1402587890625
1682879830049625900,0.6026259765625,-0.04864788055419922,1.5674011707305908,-1.3297239542007446
1682879830066488800,0.61948876953125,0.6787319183349609,1.2675511837005615,-0.810352087020874
1682879830083370200,0.636370361328125,1.2203302383422852,1.0732553005218506,-0.5984135270118713
1682879830100241200,0.6532412109375,5.106837272644043,0.32837796211242676,-0.020924746990203857
1682879830117112600,0.670112548828125,1.6724176406860352,0.7277317047119141,-1.0910416841506958
1682879830133982700,0.686982666015625,0.7666378021240234,1.220229148864746,-0.8803791999816895
1682879830150856400,0.7038564453125,-0.0861959457397461,1.2900071144104004,-0.7411175966262817
1682879830167726000,0.72072607421875,-1.4667167663574219,1.5051116943359375,-1.0156030654907227
1682879830184597000,0.737596923828125,-1.2201366424560547,1.7792344093322754,-0.8639991879463196
1682879830201465000,0.754465087890625,0.40839290618896484,1.6288530826568604,-0.426376074552536
1682879830218341600,0.771341552734375,1.3915958404541016,0.9410715103149414,0.5628596544265747
1682879830235210500,0.78821044921875,1.503997802734375,-0.12124395370483398,0.40609824657440186
1682879830252081700,0.80508154296875,0.42997169494628906,-0.09605240821838379,-0.20372635126113892
1682879830268952600,0.82195263671875,-0.06217002868652344,0.7187201976776123,-0.2832637131214142
1682879830285823700,0.83882373046875,-0.29859161376953125,0.9597897529602051,-0.5993292927742004
1682879830302695000,0.85569482421875,-1.4967117309570312,0.40871405601501465,-0.7537896037101746
1682879830319565800,0.87256591796875,-1.7859549522399902,0.13448691368103027,-1.0046470165252686
1682879830336426500,0.889426513671875,-0.7619218826293945,-0.010368585586547852,-0.6977141499519348
1682879830353308400,0.906308349609375,-0.2133188247680664,0.21245622634887695,-0.48434439301490784
1682879830370164500,0.92316455078125,-0.14967060089111328,0.45583033561706543,-0.39695465564727783
1682879830387050500,0.940050537109375,-0.716252326965332,0.29750657081604004,-0.7905364632606506
1682879830403908900,0.956908935546875,-1.0861902236938477,0.14972996711730957,-1.084381341934204
1682879830420792600,0.97379248046875,-1.0477452278137207,0.07808423042297363,-0.8766885995864868
1682879830437663700,0.990663818359375,-0.6355390548706055,-0.12557125091552734,-0.8238900899887085
1682879830454522600,1.007522705078125,-0.47740650177001953,-0.18590784072875977,-0.8266129493713379
1682879830471406300,1.02440625,-0.008859634399414062,0.20810604095458984,-0.48983415961265564
1682879830488281300,1.04128125,0.38359546661376953,0.5822572708129883,-0.2046840488910675
1682879830505147100,1.058147216796875,0.46654319763183594,0.3640899658203125,-0.258139967918396
1682879830522019800,1.075019775390625,-0.2512226104736328,0.09624767303466797,-0.6072401404380798
1682879830538890500,1.091890380859375,-0.8853797912597656,-0.06386995315551758,-0.9052759408950806
1682879830555751400,1.10875146484375,-1.05975341796875,0.23137855529785156,-0.8966237902641296
1682879830572632800,1.1256328125,-0.6853208541870117,0.2611062526702881,-0.7163369059562683
1682879830589504300,1.142504150390625,-0.09011268615722656,0.18072724342346191,-0.619523286819458
1682879830606375000,1.159375,-0.033110618591308594,0.15638065338134766,-0.6492323279380798
1682879830623246300,1.176246337890625,-0.37769603729248047,0.3258383274078369,-0.640861988067627
1682879830640117800,1.19311767578125,-0.8755474090576172,0.45864367485046387,-0.7516916990280151
1682879830656988400,1.209988525390625,-1.2050251960754395,0.5532894134521484,-0.9411271810531616
1682879830673859600,1.226859619140625,-0.8290557861328125,0.5933303833007812,-0.9754974246025085
1682879830690720000,1.243719970703125,-0.5782079696655273,0.4876284599304199,-0.7730990648269653
1682879830707591200,1.260591064453125,-0.4132661819458008,0.35665082931518555,-0.6125059723854065
1682879830724463000,1.277463134765625,-0.6751680374145508,0.2077326774597168,-0.5557867288589478
1682879830741334500,1.29433447265625,-0.7229804992675781,0.49599123001098633,-0.6099664568901062
1682879830758204200,1.3112041015625,-0.8860530853271484,0.5648517608642578,-0.6863298416137695
1682879830775088000,1.328088134765625,-1.030303955078125,0.6342873573303223,-0.7255755662918091
1682879830791957500,1.34495751953125,-0.870697021484375,0.3890242576599121,-0.5068333745002747
1682879830808827000,1.361826904296875,-0.11436843872070312,0.5001907348632812,-0.2884797155857086
1682879830825691000,1.37869091796875,-0.027265548706054688,0.6535730361938477,-0.2655746042728424
1682879830842568700,1.395568603515625,-0.37714576721191406,0.6002516746520996,-0.415301114320755
1682879830859444200,1.4124443359375,-0.5928144454956055,0.2848081588745117,-0.4613197147846222
1682879830876313300,1.429313232421875,-0.6544971466064453,0.26886463165283203,-0.48033708333969116
1682879830893184000,1.44618408203125,-0.61407470703125,0.49744272232055664,-0.5274372696876526
1682879830910063600,1.463063720703125,-0.2521839141845703,0.20100831985473633,-0.21458473801612854
1682879830926926600,1.479926513671875,-0.2531261444091797,-0.04158163070678711,-0.20309408009052277
1682879830943797800,1.4967978515625,-0.2744770050048828,0.42052602767944336,-0.5937238335609436
1682879830960668700,1.513668701171875,-0.6124067306518555,0.5545697212219238,-0.8800938129425049
1682879830977537300,1.530537353515625,-0.9138584136962891,0.7632107734680176,-1.1489208936691284
1682879830994413800,1.547413818359375,-0.7321786880493164,0.5004458427429199,-0.9309320449829102
1682879831011271200,1.564271240234375,0.31345081329345703,-0.7075309753417969,-0.6164181232452393
1682879831028153600,1.581153564453125,1.3725032806396484,0.16108131408691406,-0.33699679374694824
1682879831045018600,1.5980185546875,1.2309751510620117,0.4946861267089844,-0.7594730257987976
1682879831061895200,1.614895263671875,-0.18678569793701172,-0.09065866470336914,-1.2102036476135254
1682879831078756600,1.631756591796875,-2.771127223968506,-0.5285634994506836,-1.8640708923339844
1682879831095629300,1.64862939453125,-5.663710594177246,-1.3920724391937256,-2.686800003051758
1682879831112509000,1.665509033203125,-9.100486755371094,-3.234630584716797,-2.492706298828125
1682879831129377000,1.682376953125,-9.054533004760742,-4.268587112426758,-2.4407882690429688
1682879831146253600,1.699253662109375,-6.427892684936523,-5.252964019775391,-1.2295444011688232
1682879831163119400,1.716119384765625,-4.31348991394043,-6.256514549255371,-1.172013282775879
1682879831179996200,1.73299609375,-3.9995923042297363,-6.884542942047119,-1.6623053550720215
1682879831196864500,1.749864501953125,-4.97721529006958,-6.977834701538086,-2.0710856914520264
1682879831213732900,1.76673291015625,-3.6806740760803223,-7.505594730377197,-1.3933792114257812
1682879831230606600,1.783606689453125,-1.8722251653671265,-8.886326789855957,-1.272712230682373
1682879831247470300,1.80047021484375,-1.3478976488113403,-10.13945484161377,-1.416703224182129
1682879831264348700,1.8173486328125,-1.6880574226379395,-10.579259872436523,-1.3277239799499512
1682879831281218000,1.834218017578125,-2.621746778488159,-9.708963394165039,-0.2677183151245117
1682879831298093300,1.85109326171875,-3.5772504806518555,-8.680525779724121,0.7769651412963867
1682879831314962200,1.867962158203125,-3.1310055255889893,-7.785738945007324,2.151432991027832
1682879831331830800,1.884830810546875,-1.8822989463806152,-6.657057762145996,4.235424041748047
1682879831348707300,1.901707275390625,-2.229161262512207,-4.837120532989502,6.051660537719727
1682879831365559000,1.91855908203125,-4.900447845458984,-3.5774900913238525,6.2822418212890625
1682879831382443800,1.93544384765625,-6.874084949493408,-2.6770434379577637,6.921112060546875
1682879831399319600,1.952319580078125,-6.881337642669678,-0.672027587890625,8.348409652709961
1682879831416189000,1.96918896484375,-5.063289165496826,-0.41040360927581787,9.857477188110352
1682879831433057800,1.986057861328125,-5.145947456359863,0.30606406927108765,12.475601196289062
1682879831449931300,2.00293115234375,-7.580612659454346,2.592456579208374,14.962459564208984
1682879831466805000,2.019804931640625,-9.11246109008789,1.776803731918335,15.904709815979004
1682879831483673000,2.036673095703125,-9.470610618591309,0.19881820678710938,17.725269317626953
1682879831500544500,2.05354443359375,-9.675551414489746,2.221547842025757,20.529254913330078
1682879831517416000,2.070416015625,-8.522724151611328,6.3098978996276855,24.97683334350586
1682879831534286800,2.087286865234375,-8.86111068725586,10.613033294677734,29.9091796875
1682879831551158000,2.104157958984375,-9.401397705078125,10.67464542388916,33.23115158081055
1682879831568029200,2.121029296875,-6.167026519775391,8.093923568725586,36.28775405883789
1682879831584900000,2.137900146484375,-1.8422682285308838,6.335936546325684,37.36827087402344
1682879831601771000,2.15477099609375,0.9592711925506592,5.853381156921387,35.86458206176758
1682879831618642200,2.17164208984375,2.918851852416992,3.2218515872955322,32.560997009277344
1682879831635498200,2.188498291015625,4.3698410987854,0.855443000793457,28.151493072509766
1682879831652385000,2.205385009765625,6.5633320808410645,-1.242441177368164,25.543087005615234
1682879831669255700,2.222255615234375,10.301218032836914,-2.865319013595581,23.180221557617188
1682879831686113500,2.239113525390625,12.453033447265625,-4.849730491638184,21.520605087280273
1682879831702998300,2.255998291015625,11.844549179077148,-7.047824382781982,22.295764923095703
1682879831719869000,2.272868896484375,11.146474838256836,-9.276010513305664,23.516658782958984
1682879831736740000,2.289739990234375,12.041553497314453,-12.682196617126465,25.019620895385742
1682879831753600800,2.306600830078125,14.84615707397461,-13.675121307373047,27.30736541748047
1682879831770471700,2.3234716796875,14.913736343383789,-11.158803939819336,30.598190307617188
1682879831787353600,2.340353515625,13.040837287902832,-10.485121726989746,33.003170013427734
1682879831804222000,2.357221923828125,12.550786018371582,-10.986547470092773,34.36811828613281
1682879831821100500,2.3741005859375,11.928657531738281,-12.513437271118164,34.04070281982422
1682879831837962800,2.390962646484375,12.451923370361328,-14.051081657409668,31.58725929260254
1682879831854840600,2.407840576171875,12.544332504272461,-14.03532600402832,28.575927734375
1682879831871707000,2.424706787109375,10.974876403808594,-13.082865715026855,25.622053146362305
1682879831888572400,2.441572509765625,10.16665267944336,-12.913454055786133,22.638927459716797
1682879831905454300,2.458454345703125,9.523487091064453,-12.825807571411133,18.478343963623047
1682879831922323000,2.475322998046875,8.908482551574707,-14.093205451965332,13.879432678222656
1682879831939183000,2.49218310546875,9.1243314743042,-18.705703735351562,8.395861625671387
1682879831956064800,2.509064697265625,7.74485445022583,-24.841941833496094,2.5357179641723633
1682879831972935700,2.525935791015625,6.768649101257324,-28.41915512084961,-3.4145727157592773
1682879831989796400,2.54279638671875,7.638147354125977,-31.838268280029297,-9.138450622558594
1682879832006674000,2.559673828125,7.6030964851379395,-34.74480438232422,-11.4287691116333
1682879832023549400,2.576549560546875,6.998781204223633,-35.07304000854492,-11.503695487976074
1682879832040409900,2.593409912109375,5.949628829956055,-33.7718505859375,-9.236946105957031
1682879832057291500,2.61029150390625,6.837016582489014,-32.907596588134766,-5.7542572021484375
1682879832074152400,2.62715234375,9.396408081054688,-30.7645263671875,-0.4260988235473633
1682879832091032800,2.64403271484375,8.775749206542969,-27.103517532348633,4.9587249755859375
1682879832107905800,2.66090576171875,5.631763458251953,-25.320337295532227,8.588691711425781
1682879832124775200,2.677775146484375,3.942333936691284,-24.863733291625977,13.97291374206543
1682879832141637600,2.6946376953125,6.216439723968506,-22.138511657714844,23.252851486206055
1682879832158516700,2.711516845703125,9.459931373596191,-16.36701202392578,31.877151489257812
1682879832175391000,2.728390869140625,10.492944717407227,-11.85401439666748,35.98003387451172
1682879832192257500,2.745257568359375,10.68667221069336,-9.628657341003418,36.527801513671875
1682879832209133800,2.7621337890625,12.570873260498047,-9.418497085571289,35.605552673339844
1682879832226002700,2.779002685546875,15.008834838867188,-9.354401588439941,32.48057174682617
1682879832242873600,2.79587353515625,14.774493217468262,-10.774815559387207,28.452449798583984
1682879832259745000,2.8127451171875,12.43246841430664,-10.933992385864258,25.288816452026367
1682879832276616200,2.8296162109375,11.8287353515625,-11.59395694732666,22.04491424560547
1682879832293487000,2.846487060546875,11.659423828125,-13.239782333374023,18.192100524902344
1682879832310358000,2.86335791015625,11.018298149108887,-14.804776191711426,15.216212272644043
1682879832327229200,2.880229248046875,10.114563941955566,-15.098062515258789,15.441923141479492
1682879832344100400,2.897100341796875,11.602737426757812,-12.233627319335938,18.11754608154297
1682879832360983300,2.9139833984375,12.370695114135742,-8.41696548461914,20.000995635986328
1682879832377843000,2.930843017578125,9.296164512634277,-7.284049987792969,18.82381248474121
1682879832394712600,2.947712646484375,5.8529181480407715,-7.877524375915527,18.94070816040039
1682879832411585300,2.964585205078125,5.065733909606934,-2.431145668029785,22.891563415527344
1682879832428445700,2.98144580078125,8.672979354858398,7.014110565185547,29.58997344970703
1682879832445316400,2.99831640625,8.777323722839355,10.678863525390625,36.35578918457031
1682879832462198300,3.0151982421875,6.9962029457092285,15.079734802246094,37.72816848754883
1682879832479071000,3.032071044921875,10.93387508392334,22.69020652770996,44.28119659423828
1682879832495928600,3.048928466796875,23.11250114440918,38.68789291381836,61.05147171020508
1682879832512809200,3.065809326171875,25.015316009521484,49.13486099243164,63.6207389831543
1682879832529685200,3.082685302734375,15.303412437438965,44.056461334228516,53.76664733886719
1682879832546554000,3.09955419921875,11.378182411193848,32.18217468261719,42.34418487548828
1682879832563414300,3.116414306640625,8.352920532226562,20.53632354736328,32.251399993896484
1682879832580296400,3.13329638671875,6.892673015594482,11.9376220703125,24.050626754760742
1682879832597167400,3.15016748046875,6.767527103424072,4.759912014007568,18.667823791503906
1682879832614038500,3.16703857421875,7.38045597076416,-0.36109352111816406,16.505882263183594
1682879832630909700,3.18390966796875,7.930717945098877,-4.127542972564697,15.810516357421875
1682879832647780400,3.2007802734375,6.165436267852783,-6.9051194190979,15.872359275817871
1682879832664651500,3.217651611328125,5.61506986618042,-10.666659355163574,17.389259338378906
1682879832681522700,3.234522705078125,7.6371564865112305,-13.199071884155273,19.435367584228516
1682879832698394400,3.251394287109375,11.31881332397461,-14.503839492797852,23.91648292541504
1682879832715252000,3.268251953125,13.898164749145508,-15.898908615112305,26.93145179748535
1682879832732139000,3.285138916015625,12.697155952453613,-15.31991195678711,29.788494110107422
1682879832748996600,3.30199658203125,9.363192558288574,-14.135575294494629,33.15932846069336
1682879832765875700,3.318875732421875,8.543052673339844,-13.545095443725586,36.761627197265625
1682879832782752000,3.335751953125,9.89456558227539,-15.470735549926758,39.01197052001953
1682879832799610000,3.352610107421875,10.228845596313477,-16.922740936279297,38.922359466552734
1682879832816492000,3.369491943359375,9.127622604370117,-16.336711883544922,35.23402404785156
1682879832833361000,3.38636083984375,8.228063583374023,-15.853275299072266,32.120628356933594
1682879832850236200,3.403236083984375,7.535733699798584,-15.77364730834961,28.60512924194336
1682879832867107800,3.42010791015625,7.640751838684082,-16.3586483001709,23.937538146972656
1682879832883973600,3.4369736328125,7.749908447265625,-19.17066764831543,16.824602127075195
1682879832900847400,3.453847412109375,6.670111179351807,-23.889514923095703,8.490126609802246
1682879832917718500,3.470718505859375,4.821649074554443,-30.069721221923828,-0.7638998031616211
1682879832934589700,3.487589599609375,4.062502384185791,-37.098541259765625,-9.067139625549316
1682879832951458600,3.50445849609375,5.946686267852783,-42.14967727661133,-14.901906967163086
1682879832968334300,3.521334228515625,6.511440277099609,-45.303321838378906,-16.990264892578125
1682879832985203200,3.538203125,5.584229946136475,-45.12953186035156,-16.210166931152344
1682879833002073900,3.555073974609375,6.833249092102051,-42.932979583740234,-11.673673629760742
1682879833018945000,3.571945068359375,6.418240547180176,-40.31607437133789,-5.219236373901367
1682879833035808500,3.58880859375,4.770752429962158,-36.180580139160156,1.3764605522155762
1682879833052688000,3.60568798828125,4.034021377563477,-32.39021301269531,10.609061241149902
1682879833069544400,3.62254443359375,4.899341106414795,-27.144208908081055,23.254714965820312
1682879833086427100,3.63942724609375,6.146481037139893,-19.83428382873535,35.35918426513672
1682879833103303400,3.656303466796875,8.544072151184082,-14.193563461303711,40.96955871582031
1682879833120171500,3.673171630859375,11.160823822021484,-11.990147590637207,40.04613494873047
1682879833137043000,3.69004296875,13.310565948486328,-9.957262992858887,38.74617004394531
1682879833153914000,3.7069140625,15.796923637390137,-8.90291690826416,34.844703674316406
1682879833170785500,3.72378564453125,15.86990737915039,-10.237868309020996,30.433412551879883
1682879833187656400,3.740656494140625,14.41134262084961,-12.084693908691406,24.98845672607422
1682879833204527600,3.757527587890625,13.720671653747559,-13.903751373291016,20.595666885375977
1682879833221401300,3.7744013671875,13.808233261108398,-14.59145736694336,18.39187240600586
1682879833238272300,3.791272216796875,13.487462997436523,-15.035655975341797,16.781490325927734
1682879833255140900,3.808140869140625,12.888345718383789,-14.978455543518066,16.465042114257812
1682879833272007700,3.825007568359375,13.547317504882812,-14.030778884887695,17.49178695678711
1682879833288883000,3.841883056640625,12.985929489135742,-11.69551944732666,18.3911190032959
1682879833305754000,3.858754150390625,11.542162895202637,-9.800151824951172,18.423316955566406
1682879833322611500,3.875611572265625,9.267160415649414,-8.883353233337402,18.810773849487305
1682879833339499300,3.892499267578125,6.456603527069092,-6.909235954284668,21.457984924316406
1682879833356367400,3.909367431640625,5.49728536605835,-0.5011353492736816,25.866100311279297
1682879833373236200,3.926236328125,6.036490440368652,8.757688522338867,31.059303283691406
1682879833390102800,3.943102783203125,5.942355155944824,14.330918312072754,36.683082580566406
1682879833406980900,3.95998095703125,7.739978790283203,15.392716407775879,40.706787109375
1682879833423841500,3.976841552734375,14.094202041625977,18.95641326904297,42.87847900390625
1682879833440720600,3.993720703125,16.484638214111328,29.09282112121582,56.0202522277832
1682879833457597200,4.01059716796875,19.80204200744629,42.83388137817383,65.17073059082031
1682879833474449200,4.02744921875,22.58940887451172,47.075618743896484,61.235450744628906
1682879833491331800,4.044331787109375,16.95941925048828,40.70189666748047,52.62942123413086
1682879833508210400,4.06121044921875,11.243865966796875,25.79337501525879,37.600067138671875
1682879833525078500,4.07807861328125,7.638957500457764,11.412750244140625,26.217906951904297
1682879833541950000,4.094949951171875,4.572854995727539,5.3642401695251465,19.359241485595703
1682879833558821000,4.111821044921875,4.919585704803467,0.29016757011413574,16.97796058654785
1682879833575681500,4.128681640625,5.82640266418457,-4.814336776733398,16.22979164123535
1682879833592563200,4.145563232421875,6.464925765991211,-10.12863540649414,16.539562225341797
1682879833609434000,4.16243408203125,8.395111083984375,-14.128185272216797,18.35265350341797
1682879833626305300,4.17930517578125,10.73528003692627,-16.243669509887695,20.624568939208984
1682879833643176700,4.1961767578125,13.42302417755127,-15.767123222351074,24.364776611328125
1682879833660048100,4.213048095703125,14.470301628112793,-15.887874603271484,28.104055404663086
1682879833676916000,4.229916015625,12.576608657836914,-13.953143119812012,32.39064025878906
1682879833693790200,4.246790283203125,10.808639526367188,-12.369466781616211,37.07683181762695
1682879833710660900,4.263660888671875,11.768887519836426,-12.803007125854492,40.778099060058594
1682879833727531800,4.28053173828125,11.656614303588867,-15.644916534423828,40.8637580871582
1682879833744398800,4.29739892578125,9.699840545654297,-17.431682586669922,37.878211975097656
1682879833761270300,4.314270263671875,8.714430809020996,-17.34312629699707,35.34041213989258
1682879833778141400,4.331141357421875,9.156414031982422,-15.411917686462402,32.77553176879883
1682879833795014000,4.348013916015625,9.819846153259277,-14.346013069152832,30.877696990966797
1682879833811891000,4.364890869140625,8.753416061401367,-15.384047508239746,25.66706085205078
1682879833828755000,4.3817548828125,7.860959053039551,-18.713842391967773,18.206806182861328
1682879833845623300,4.398623291015625,6.846976280212402,-23.280641555786133,10.132086753845215
1682879833862498800,4.415498779296875,7.557590484619141,-27.202756881713867,1.4281940460205078
1682879833879374800,4.432374755859375,8.815400123596191,-32.44767761230469,-5.2734785079956055
1682879833896243000,4.449242919921875,8.181191444396973,-37.59078598022461,-9.302713394165039
1682879833913117400,4.466117431640625,8.366430282592773,-43.31472396850586,-11.222915649414062
1682879833929973200,4.48297314453125,11.216023445129395,-46.00724792480469,-12.767935752868652
1682879833946847000,4.499846923828125,10.438512802124023,-45.65534210205078,-12.022927284240723
1682879833963729700,4.516729736328125,8.9993896484375,-42.73044967651367,-6.581304550170898
1682879833980598800,4.533598876953125,6.827243804931641,-38.768680572509766,0.7414875030517578
1682879833997467400,4.55046728515625,4.583224296569824,-34.065956115722656,9.088866233825684
1682879834014344000,4.567343994140625,5.443110942840576,-29.55284309387207,18.622873306274414
1682879834031200500,4.584200439453125,6.4509992599487305,-24.24131965637207,29.095380783081055
1682879834048082200,4.601082275390625,5.793375492095947,-18.14444923400879,36.444129943847656
1682879834064970500,4.617970458984375,6.246987342834473,-12.954347610473633,40.003318786621094
1682879834081825500,4.634825439453125,6.292355060577393,-10.639881134033203,38.807037353515625
1682879834098697000,4.651697021484375,8.485738754272461,-10.632501602172852,36.19417190551758
1682879834115557400,4.668557373046875,12.694543838500977,-11.956089973449707,34.22624206542969
1682879834132439300,4.685439208984375,14.710906982421875,-12.596294403076172,32.77314758300781
1682879834149310200,4.702310302734375,16.940702438354492,-11.033458709716797,31.917150497436523
1682879834166181600,4.719181640625,15.904481887817383,-9.709471702575684,28.717321395874023
1682879834183052300,4.73605224609375,11.863544464111328,-11.555452346801758,25.562776565551758
1682879834199923200,4.752923095703125,11.196046829223633,-13.99946117401123,21.776960372924805
1682879834216795000,4.769794921875,13.084100723266602,-14.41644287109375,18.96556854248047
1682879834233665800,4.786665771484375,14.920784950256348,-13.295949935913086,19.304452896118164
1682879834250537200,4.803537109375,13.221267700195312,-10.75501537322998,19.759429931640625
1682879834267408400,4.820408447265625,12.107293128967285,-10.231935501098633,20.03118133544922
1682879834284279300,4.837279296875,9.638557434082031,-13.395196914672852,19.2357120513916
1682879834301150000,4.85414990234375,6.014482498168945,-14.1417236328125,21.773822784423828
1682879834318021400,4.871021484375,3.7096633911132812,-8.123449325561523,30.220012664794922
1682879834334892500,4.887892578125,5.74261474609375,2.1181790828704834,38.95783233642578
1682879834351763700,4.904763671875,11.083579063415527,8.809895515441895,44.78823471069336
1682879834368634600,4.921634521484375,17.49153709411621,11.959725379943848,46.29460525512695
1682879834385490400,4.938490478515625,16.639829635620117,20.415504455566406,54.909141540527344
1682879834402377000,4.955376953125,19.450849533081055,38.2986946105957,71.41448211669922
1682879834419248400,4.972248291015625,17.971853256225586,53.12612533569336,73.36583709716797
1682879834436116700,4.98911669921875,14.177700996398926,50.710060119628906,59.01514434814453
1682879834452992800,5.00599267578125,7.372949600219727,36.3298454284668,44.246742248535156
1682879834469861600,5.022861572265625,3.5608692169189453,24.75625991821289,35.55118942260742
1682879834486732800,5.03973291015625,5.361488342285156,14.143636703491211,29.323448181152344
1682879834503601400,5.056601318359375,8.737099647521973,4.440773963928223,22.506046295166016
1682879834520477400,5.0734775390625,8.005865097045898,-2.0930421352386475,18.256542205810547
1682879834537345800,5.090345703125,5.971436500549316,-5.552907943725586,16.554500579833984
1682879834554217000,5.107217041015625,7.13933801651001,-9.451269149780273,17.750022888183594
1682879834571091700,5.124091796875,8.084559440612793,-12.717540740966797,20.126379013061523
1682879834587955700,5.140955810546875,9.042633056640625,-16.15008544921875,23.331310272216797
1682879834604830200,5.157830322265625,12.082276344299316,-18.000274658203125,27.90135955810547
1682879834621702000,5.174701904296875,14.670473098754883,-17.748939514160156,33.85939025878906
1682879834638572800,5.19157275390625,15.488525390625,-15.228668212890625,38.21306228637695
1682879834655443000,5.20844287109375,13.449056625366211,-16.609285354614258,42.0019645690918
1682879834672304600,5.2253046875,11.165802001953125,-18.896970748901367,43.212955474853516
1682879834689186300,5.242186279296875,11.161223411560059,-19.697595596313477,42.744110107421875
1682879834706057000,5.259056884765625,10.492813110351562,-20.25275230407715,42.251461029052734
1682879834722925600,5.275925537109375,11.135170936584473,-19.617883682250977,40.43084716796875
1682879834739799300,5.29279931640625,10.333429336547852,-19.544612884521484,37.717281341552734
1682879834756662300,5.309662353515625,9.28497314453125,-19.972362518310547,33.56243133544922
1682879834773525000,5.32652490234375,9.89680290222168,-20.21820068359375,26.618396759033203
1682879834790410000,5.343409912109375,10.203633308410645,-21.55471420288086,19.017955780029297
1682879834807286500,5.36028662109375,8.33531665802002,-26.53155517578125,9.818236351013184
1682879834824157400,5.377157470703125,5.513667106628418,-34.2457389831543,0.9532241821289062
1682879834841015800,5.394015869140625,3.3658084869384766,-41.87305450439453,-4.663937568664551
1682879834857901800,5.41090185546875,7.1919355392456055,-44.79500198364258,-8.499052047729492
1682879834874768400,5.427768310546875,10.795553207397461,-46.74538040161133,-13.075272560119629
1682879834891639600,5.4446396484375,10.68291187286377,-49.001461029052734,-17.12384033203125
1682879834908510500,5.461510498046875,10.70335578918457,-47.2635612487793,-14.80361557006836
1682879834925381600,5.478381591796875,10.430048942565918,-41.70143127441406,-8.626120567321777
1682879834942253000,5.495253173828125,9.874598503112793,-35.852569580078125,-0.31426429748535156
1682879834959123700,5.512123779296875,8.429632186889648,-32.65596008300781,8.971016883850098
1682879834975995100,5.5289951171875,8.447604179382324,-29.088953018188477,20.689773559570312
1682879834992866000,5.545865966796875,6.871145248413086,-24.393064498901367,32.29737091064453
1682879835009737200,5.5627373046875,5.5678791999816895,-18.99081039428711,40.888206481933594
1682879835026602200,5.579602294921875,3.524759292602539,-12.976247787475586,42.95013427734375
1682879835043479800,5.596479736328125,4.045992374420166,-13.841659545898438,40.64944076538086
1682879835060350500,5.6133505859375,10.178823471069336,-18.001541137695312,36.6219596862793
1682879835077222000,5.630221923828125,13.179830551147461,-21.043697357177734,33.91454315185547
1682879835094082600,5.64708251953125,14.644168853759766,-20.809890747070312,33.153343200683594
1682879835110964000,5.6639638671875,13.723860740661621,-16.62173843383789,33.33168411254883
1682879835127835100,5.680835205078125,10.352869987487793,-13.685449600219727,30.788990020751953
1682879835144704500,5.69770458984375,7.965804100036621,-15.085273742675781,25.94443702697754
1682879835161580000,5.714580078125,9.848376274108887,-17.47739028930664,21.905696868896484
1682879835178446000,5.731446044921875,12.477082252502441,-18.301998138427734,20.40566635131836
1682879835195320800,5.74832080078125,14.380763053894043,-17.40386199951172,21.663833618164062
1682879835212193300,5.765193359375,13.175354957580566,-14.171634674072266,23.520893096923828
1682879835229059300,5.782059326171875,7.177774906158447,-12.246209144592285,22.995092391967773
1682879835245935600,5.798935546875,1.7800716161727905,-9.995771408081055,22.342632293701172
1682879835262804200,5.81580419921875,2.362187623977661,-2.4785826206207275,27.591411590576172
1682879835279674600,5.832674560546875,8.033058166503906,4.585153579711914,33.13655090332031
1682879835296547600,5.849547607421875,10.88928508758545,9.409855842590332,37.66238021850586
1682879835313417500,5.86641748046875,7.327273368835449,10.504339218139648,37.894248962402344
1682879835330286000,5.8832861328125,9.66087532043457,11.400609970092773,42.57118225097656
1682879835347169000,5.9001689453125,21.938934326171875,22.15928077697754,60.05489730834961
1682879835364030700,5.91703076171875,30.613784790039062,37.762290954589844,72.87181091308594
1682879835380899000,5.933899169921875,22.356861114501953,45.2856330871582,68.87987518310547
1682879835397776000,5.95077587890625,15.90962028503418,38.6395378112793,58.84342575073242
1682879835414637600,5.967637451171875,14.439217567443848,23.89577865600586,43.011566162109375
1682879835431514000,5.98451416015625,7.919295787811279,11.103864669799805,31.053760528564453
1682879835448389400,6.001389404296875,5.842655181884766,6.674191474914551,23.138710021972656
1682879835465256700,6.018256591796875,7.32712984085083,3.2890124320983887,18.38378143310547
1682879835482131700,6.035131591796875,7.200869560241699,-0.8352872133255005,15.754640579223633
1682879835498996700,6.051996826171875,4.367912292480469,-4.5857110023498535,15.130465507507324
1682879835515874600,6.06887451171875,4.242531776428223,-9.637758255004883,17.422286987304688
1682879835532740000,6.085739990234375,9.277778625488281,-14.137008666992188,21.27947998046875
1682879835549614600,6.102614501953125,11.485820770263672,-16.68817901611328,25.15882682800293
1682879835566485500,6.119485595703125,12.087667465209961,-19.568458557128906,27.211185455322266
1682879835583355400,6.13635546875,9.591514587402344,-21.181365966796875,28.51047706604004
1682879835600226600,6.1532265625,10.748065948486328,-19.353923797607422,31.396617889404297
1682879835617097700,6.17009765625,9.66639232635498,-17.997745513916016,35.43996047973633
1682879835633969200,6.18696923828125,7.749590873718262,-18.18632698059082,37.51151657104492
1682879835650840300,6.20384033203125,7.887740135192871,-19.501384735107422,38.80614471435547
1682879835667711200,6.220711181640625,8.13500690460205,-19.5269775390625,38.67930221557617
1682879835684582400,6.23758251953125,7.668680191040039,-19.384279251098633,36.79248809814453
1682879835701444900,6.25444482421875,6.924606800079346,-18.500534057617188,34.146270751953125
1682879835718327000,6.2713271484375,7.203486442565918,-17.830846786499023,30.48019790649414
1682879835735205600,6.28820556640625,7.196894645690918,-17.992496490478516,25.4129581451416
1682879835752067000,6.305067138671875,6.567226409912109,-20.288192749023438,17.653583526611328
1682879835768947700,6.32194775390625,6.832150459289551,-24.223175048828125,9.642059326171875
1682879835785798400,6.33879833984375,8.70539665222168,-27.795366287231445,1.5055961608886719
1682879835802680300,6.355680419921875,10.166803359985352,-33.529273986816406,-3.919194221496582
1682879835819552000,6.372552001953125,8.431917190551758,-37.73810577392578,-5.252045631408691
1682879835836421400,6.38942138671875,9.185941696166992,-38.06694030761719,-8.07405948638916
1682879835853293800,6.4062939453125,9.805073738098145,-41.105979919433594,-12.124279022216797
1682879835870164700,6.423164794921875,7.43107271194458,-44.027557373046875,-14.2243070602417
1682879835887035600,6.44003564453125,8.169434547424316,-43.80126190185547,-11.435746192932129
1682879835903905300,6.4569052734375,7.576655387878418,-39.94902801513672,-5.340418815612793
1682879835920779800,6.47377978515625,6.036391258239746,-36.31733322143555,2.044499397277832
1682879835937638400,6.490638427734375,2.5034236907958984,-32.235679626464844,11.543278694152832
1682879835954520000,6.50752001953125,0.6691596508026123,-26.697418212890625,22.25183868408203
1682879835971389000,6.524388916015625,-1.539788007736206,-20.781818389892578,31.455854415893555
1682879835988254500,6.54125439453125,0.5390164852142334,-15.975858688354492,36.560428619384766
1682879836005133800,6.5581337890625,5.321966171264648,-12.780288696289062,39.92326736450195
1682879836021994200,6.574994140625,9.375343322753906,-8.29491901397705,39.68941116333008
1682879836038869500,6.591869384765625,12.045059204101562,-9.941837310791016,33.94847869873047
1682879836055736300,6.608736328125,10.11327838897705,-14.059561729431152,28.019153594970703
1682879836072618000,6.625617919921875,10.371410369873047,-16.218978881835938,24.038232803344727
1682879836089496000,6.64249609375,13.345474243164062,-17.89472007751465,22.4945125579834
1682879836106360300,6.6593603515625,13.324325561523438,-17.679698944091797,22.318269729614258
1682879836123231500,6.6762314453125,12.871358871459961,-16.843997955322266,22.96932601928711
1682879836140101600,6.6931015625,12.616310119628906,-14.310324668884277,21.93914031982422
1682879836156974600,6.709974609375,10.574075698852539,-13.515090942382812,20.68252182006836
1682879836173843000,6.726843017578125,10.424470901489258,-11.954652786254883,19.485111236572266
1682879836190717700,6.7437177734375,9.723071098327637,-11.169621467590332,18.775196075439453
1682879836207587300,6.76058740234375,6.5188703536987305,-9.790427207946777,18.168155670166016
1682879836224458200,6.777458251953125,3.866029739379883,-8.875818252563477,20.533056259155273
1682879836241326600,6.79432666015625,1.2579727172851562,-2.590843677520752,24.69097328186035
1682879836258203400,6.811203369140625,0.9424734115600586,6.374632358551025,29.902578353881836
1682879836275071700,6.82807177734375,3.09499454498291,11.539677619934082,31.931650161743164
1682879836291942700,6.844942626953125,3.5090558528900146,9.104362487792969,32.676788330078125
1682879836308813800,6.861813720703125,4.714498043060303,10.717188835144043,35.81877899169922
1682879836325674200,6.87867431640625,10.502723693847656,17.604473114013672,42.05914306640625
1682879836342556200,6.89555615234375,10.96333122253418,30.040813446044922,54.747806549072266
1682879836359427600,6.912427490234375,13.015024185180664,49.489498138427734,65.42803955078125
1682879836376296700,6.929296630859375,7.418393135070801,53.624149322509766,63.089515686035156
1682879836393169400,6.94616943359375,10.425519943237305,39.10654067993164,49.307830810546875
1682879836410031400,6.96303125,11.389261245727539,21.25046157836914,36.33177185058594
1682879836426911500,6.979911376953125,7.922255039215088,13.775707244873047,28.18192481994629
1682879836443773000,6.99677294921875,5.336996555328369,9.265121459960938,22.5252628326416
1682879836460654000,7.013654052734375,5.941008567810059,3.532480239868164,18.408544540405273
1682879836477525500,7.030525390625,5.154721260070801,-1.7180737257003784,16.898128509521484
1682879836494395000,7.047394775390625,6.60997200012207,-6.323239326477051,17.731189727783203
1682879836511272000,7.06427197265625,6.814505577087402,-10.67953872680664,20.254459381103516
1682879836528135700,7.0811357421875,6.950229167938232,-14.656709671020508,22.99051856994629
1682879836545009700,7.098009765625,8.450428009033203,-17.12412452697754,26.4102840423584
1682879836561881000,7.114881103515625,10.103812217712402,-18.453136444091797,30.25248908996582
1682879836578752000,7.131751953125,11.316427230834961,-18.631311416625977,33.35101318359375
1682879836595612400,7.1486123046875,10.5899076461792,-17.334707260131836,36.30889892578125
1682879836612492000,7.165491943359375,9.996252059936523,-16.7665958404541,40.195037841796875
1682879836629368000,7.1823681640625,10.379256248474121,-17.56142807006836,42.156158447265625
1682879836646236400,7.199236328125,9.488880157470703,-19.24549102783203,41.62453079223633
1682879836663105000,7.21610498046875,7.824352264404297,-19.229686737060547,38.918270111083984
1682879836679981600,7.232981689453125,7.175677299499512,-18.445636749267578,36.66183853149414
1682879836696858600,7.249858642578125,7.186474323272705,-17.915769577026367,33.828857421875
1682879836713722600,7.26672265625,7.345105171203613,-17.690933227539062,29.441574096679688
1682879836730585900,7.2835859375,7.466972351074219,-18.80803871154785,23.459684371948242
1682879836747463400,7.30046337890625,7.625906944274902,-22.21365737915039,16.149538040161133
1682879836764319000,7.317319091796875,5.421006202697754,-27.910703659057617,7.373457908630371
1682879836781193200,7.334193115234375,5.728904724121094,-37.09735870361328,0.5899620056152344
1682879836798078700,7.35107861328125,10.846840858459473,-41.650779724121094,-4.398487091064453
1682879836814948000,7.367947998046875,11.973410606384277,-42.7343635559082,-9.293622016906738
1682879836831819300,7.3848193359375,7.5424723625183105,-47.53202819824219,-14.72227668762207
1682879836848687600,7.4016875,6.226079940795898,-50.74223709106445,-17.76058578491211
1682879836865553400,7.418553466796875,8.978684425354004,-49.8248291015625,-14.707566261291504
1682879836882429700,7.4354296875,9.012484550476074,-45.1034049987793,-7.6809892654418945
1682879836899306200,7.45230615234375,8.09853744506836,-39.167877197265625,2.32794189453125
1682879836916172300,7.46917236328125,4.285640716552734,-32.496604919433594,12.76246166229248
1682879836933048800,7.486048828125,0.8417234420776367,-27.727703094482422,24.24707794189453
1682879836949917200,7.502917236328125,-0.0979013442993164,-23.59168243408203,33.16401672363281
1682879836966788400,7.519788330078125,0.9818992614746094,-18.509334564208984,41.35360336303711
1682879836983659300,7.5366591796875,2.450531005859375,-10.133328437805176,44.79330825805664
1682879837000530400,7.553530517578125,4.895899295806885,-7.513881683349609,41.11989212036133
1682879837017415400,7.57041552734375,7.81141471862793,-10.477922439575195,34.210670471191406
1682879837034273000,7.58727294921875,10.489882469177246,-14.416950225830078,29.101667404174805
1682879837051133200,7.60413330078125,13.144636154174805,-15.629152297973633,26.615942001342773
1682879837068015000,7.62101513671875,14.273321151733398,-15.818275451660156,25.15911102294922
1682879837084871400,7.637871337890625,12.621406555175781,-14.80626106262207,24.326419830322266
1682879837101757400,7.65475732421875,10.086196899414062,-14.294038772583008,22.119892120361328
1682879837118615600,7.671615478515625,10.43399429321289,-15.49276351928711,20.49622344970703
1682879837135486500,7.688486572265625,11.009194374084473,-16.578266143798828,18.90973663330078
1682879837152373500,7.70537353515625,11.507072448730469,-16.420339584350586,18.601394653320312
1682879837169243400,7.722243408203125,12.651190757751465,-14.4432373046875,19.835493087768555
1682879837186112000,7.739112060546875,10.545989990234375,-11.316498756408691,21.27712631225586
1682879837202982100,7.755982177734375,3.671149730682373,-9.04347038269043,21.727272033691406
1682879837219857700,7.772857666015625,1.8426029682159424,-4.814431190490723,23.6113338470459
1682879837236726500,7.7897265625,6.885013103485107,-1.8096016645431519,28.88968276977539
1682879837253597700,7.80659765625,10.620279312133789,3.4516961574554443,34.145835876464844
1682879837270468900,7.82346875,9.485006332397461,10.79871940612793,39.40470886230469
1682879837287340000,7.840340087890625,12.992267608642578,13.359509468078613,40.41067886352539
1682879837304208600,7.857208740234375,20.898984909057617,11.757705688476562,42.01866912841797
1682879837321088000,7.874087890625,30.98197364807129,20.60302734375,59.408203125
1682879837337956000,7.8909560546875,43.09355163574219,41.957923889160156,73.42147827148438
1682879837354824400,7.907824462890625,39.45420455932617,46.048622131347656,66.571044921875
1682879837371686000,7.924685791015625,26.169212341308594,28.92036247253418,46.98463821411133
1682879837388566800,7.94156689453125,19.263826370239258,17.41697120666504,33.42932891845703
1682879837405430300,7.95843017578125,13.604586601257324,11.950191497802734,26.066064834594727
1682879837422299100,7.975299072265625,8.668572425842285,7.239569187164307,20.241418838500977
1682879837439167500,7.99216748046875,6.548423767089844,2.2871501445770264,16.914527893066406
1682879837456041000,8.009041015625,4.610899925231934,-1.3246337175369263,16.321762084960938
1682879837472912100,8.025912109375,3.9737908840179443,-8.298919677734375,17.260547637939453
1682879837489786600,8.04278662109375,4.683803558349609,-13.061861038208008,19.462177276611328
1682879837506655500,8.059655517578125,7.817513465881348,-15.284571647644043,22.93475914001465
1682879837523526000,8.07652587890625,11.691998481750488,-18.534297943115234,27.173084259033203
1682879837540398600,8.093398681640625,12.575529098510742,-20.892499923706055,29.575199127197266
1682879837557268500,8.1102685546875,11.417470932006836,-19.901039123535156,31.786701202392578
1682879837574139400,8.127139404296875,11.175495147705078,-18.781593322753906,35.27632141113281
1682879837591017000,8.144016845703124,12.344670295715332,-18.484821319580078,37.899658203125
1682879837607879400,8.16087939453125,11.549720764160156,-19.728363037109375,38.788394927978516
1682879837624753000,8.1777529296875,10.512296676635742,-20.098712921142578,39.09046936035156
1682879837641623800,8.194623779296874,10.560643196105957,-20.112499237060547,37.727813720703125
1682879837658502700,8.211502685546876,9.064308166503906,-18.99054527282715,35.842857360839844
1682879837675364900,8.22836474609375,7.399818420410156,-17.10028076171875,33.967044830322266
1682879837692238800,8.24523876953125,8.749971389770508,-16.360319137573242,30.30364990234375
1682879837709109500,8.262109619140626,9.248871803283691,-19.08328628540039,23.950679779052734
1682879837725979100,8.278979248046875,8.84524154663086,-25.43750762939453,14.515920639038086
1682879837742863600,8.295863525390626,5.601788520812988,-33.07853317260742,3.084165573120117
1682879837759722000,8.312721923828125,5.795572757720947,-41.11100769042969,-4.678420066833496
1682879837776603400,8.329603271484375,10.60184383392334,-44.582618713378906,-10.227546691894531
1682879837793475600,8.3464755859375,11.130546569824219,-48.55278015136719,-14.958330154418945
1682879837810345200,8.36334521484375,8.085597038269043,-51.86054611206055,-19.173301696777344
1682879837827201300,8.380201171875,9.368112564086914,-50.28704833984375,-17.199249267578125
1682879837844089600,8.397089599609375,9.708572387695312,-45.65085983276367,-11.598591804504395
1682879837860957400,8.41395751953125,8.620534896850586,-39.78731918334961,-3.8988685607910156
1682879837877831200,8.4308310546875,7.059725761413574,-35.21259689331055,5.033994674682617
1682879837894700300,8.4477001953125,3.990727663040161,-31.56142807006836,13.853492736816406
1682879837911575000,8.464574951171874,2.619882106781006,-28.35108184814453,24.407390594482422
1682879837928430600,8.4814306640625,2.871457815170288,-25.567302703857422,33.743473052978516
1682879837945316900,8.49831689453125,4.560965061187744,-20.423023223876953,42.17225646972656
1682879837962189000,8.51518896484375,4.0348920822143555,-14.340415954589844,44.22604751586914
1682879837979057000,8.532056884765625,6.101853370666504,-12.952863693237305,39.31819534301758
1682879837995927600,8.548927490234375,8.033506393432617,-16.09199333190918,32.93130874633789
1682879838012800300,8.56580029296875,10.788336753845215,-18.210384368896484,30.432594299316406
1682879838029660000,8.582659912109374,12.775653839111328,-16.418128967285156,29.824432373046875
1682879838046540300,8.599540283203124,12.307632446289062,-15.392101287841797,27.348670959472656
1682879838063415600,8.61641552734375,10.82324504852295,-15.685998916625977,23.36825180053711
1682879838080283600,8.63328369140625,9.204272270202637,-16.156911849975586,20.04043197631836
1682879838097155300,8.6501552734375,8.433185577392578,-16.528942108154297,17.41324234008789
1682879838114012200,8.66701220703125,8.656770706176758,-16.777679443359375,16.165512084960938
1682879838130899700,8.683899658203124,10.032844543457031,-15.624593734741211,17.018878936767578
1682879838147766000,8.70076611328125,10.497587203979492,-13.056283950805664,18.434499740600586
1682879838164636200,8.71763623046875,8.89146900177002,-11.400684356689453,19.76349639892578
1682879838181511200,8.73451123046875,5.003518581390381,-11.49273681640625,21.160568237304688
1682879838198385000,8.751385009765626,2.3288729190826416,-6.916681289672852,24.338497161865234
1682879838215260000,8.768260009765624,4.084982395172119,1.1365891695022583,30.491527557373047
1682879838232121900,8.785121826171874,5.648737907409668,8.307714462280273,35.392494201660156
1682879838248998100,8.801998046875,7.274479389190674,8.844749450683594,38.128684997558594
1682879838265866800,8.81886669921875,12.535630226135254,5.210735321044922,39.47648620605469
1682879838282737700,8.835737548828124,17.57223129272461,14.256986618041992,52.8699836730957
1682879838299608800,8.85260888671875,19.094890594482422,28.460758209228516,69.1292724609375
1682879838316480000,8.86947998046875,21.575197219848633,41.106204986572266,70.29153442382812
1682879838333351400,8.886351318359376,18.910600662231445,39.74634552001953,60.41272735595703
1682879838350222600,8.90322265625,12.745001792907715,28.211381912231445,45.58716583251953
1682879838367093800,8.92009375,8.51142406463623,16.43071746826172,34.71984100341797
1682879838383965000,8.93696484375,8.702301979064941,8.54108715057373,27.200687408447266
1682879838400835600,8.953835693359375,8.620370864868164,3.750871181488037,20.61796760559082
1682879838417707000,8.97070703125,7.183228969573975,1.3112621307373047,16.391948699951172
1682879838434571800,8.98757177734375,5.220862865447998,-2.788275718688965,14.543935775756836
1682879838451446800,9.00444677734375,4.198119163513184,-5.608155727386475,13.991320610046387
1682879838468312600,9.0213125,4.178699970245361,-9.371126174926758,16.89842414855957
1682879838485189400,9.038189453125,6.499659061431885,-13.489044189453125,20.74089813232422
1682879838502065700,9.055065673828125,8.566207885742188,-17.254745483398438,23.566410064697266
1682879838518937000,9.07193701171875,9.119303703308105,-20.618167877197266,26.36284065246582
1682879838535791400,9.088791259765625,10.438739776611328,-19.826581954956055,30.350767135620117
1682879838552674300,9.10567431640625,10.226768493652344,-18.36090850830078,35.64949417114258
1682879838569549800,9.1225498046875,8.580036163330078,-19.263500213623047,38.564815521240234
1682879838586418700,9.139418701171875,8.356144905090332,-20.234346389770508,39.96483612060547
1682879838603289900,9.156289794921875,8.652434349060059,-21.38446617126465,40.1377067565918
1682879838620161000,9.1731611328125,8.043039321899414,-21.681978225708008,38.314762115478516
1682879838637032000,9.190031982421875,8.490488052368164,-21.37253761291504,36.044464111328125
1682879838653898800,9.206898681640626,8.357410430908203,-19.828336715698242,33.721435546875
1682879838670779000,9.22377880859375,7.7777934074401855,-19.163959503173828,30.348224639892578
1682879838687647500,9.2406474609375,6.892714977264404,-19.277040481567383,24.625473022460938
1682879838704514800,9.257514892578126,7.008270263671875,-20.792634963989258,18.156295776367188
1682879838721385500,9.274385498046875,7.57347297668457,-23.677522659301758,11.43651294708252
1682879838738261500,9.291261474609374,5.8559417724609375,-28.637794494628906,2.9833106994628906
1682879838755128300,9.30812841796875,3.8294286727905273,-35.115604400634766,-2.980619430541992
1682879838772001300,9.325001220703125,8.646391868591309,-39.43850326538086,-6.250567436218262
1682879838788872700,9.341872802734375,10.694293022155762,-43.631534576416016,-11.253436088562012
1682879838805734700,9.358734619140625,7.850618362426758,-50.353492736816406,-17.796947479248047
1682879838822613500,9.375613525390625,9.815754890441895,-53.33946228027344,-19.073711395263672
1682879838839486000,9.39248583984375,12.22644329071045,-49.91887283325195,-13.657711029052734
1682879838856347600,9.40934765625,8.965696334838867,-43.67353820800781,-4.225001335144043
1682879838873228300,9.426228271484375,5.220824241638184,-37.06204605102539,6.493536949157715
1682879838890108000,9.44310791015625,2.571481704711914,-32.4096565246582,17.910755157470703
1682879838906970600,9.459970703125,0.11947774887084961,-27.682226181030273,28.967327117919922
1682879838923844000,9.476843994140625,-0.5739893913269043,-21.523006439208984,36.240047454833984
1682879838940711200,9.493711181640625,1.8439960479736328,-14.632957458496094,38.86793518066406
1682879838957574000,9.510573974609375,3.297206163406372,-13.418880462646484,36.9670295715332
1682879838974455300,9.527455322265626,6.015634536743164,-16.241943359375,32.842071533203125
1682879838991314400,9.544314453125,10.253844261169434,-20.82110595703125,31.127052307128906
1682879839008199200,9.56119921875,13.589940071105957,-23.045330047607422,28.822168350219727
1682879839025068800,9.57806884765625,14.744894027709961,-22.17072296142578,27.59331703186035
1682879839041940200,9.594940185546875,13.181496620178223,-19.31395721435547,26.096744537353516
1682879839058801000,9.61180078125,9.19101333618164,-19.07421112060547,22.883769989013672
1682879839075671800,9.628671875,9.924721717834473,-20.463420867919922,20.19066047668457
1682879839092553500,9.645553466796875,12.733942985534668,-19.849014282226562,19.562541961669922
1682879839109424600,9.662424560546874,12.904247283935547,-17.985801696777344,19.94394874572754
1682879839126295800,9.6792958984375,12.510705947875977,-14.49539566040039,20.76389503479004
1682879839143167500,9.69616748046875,9.628870964050293,-10.745999336242676,20.634841918945312
1682879839160038100,9.7130380859375,4.780684471130371,-9.7350492477417,19.450153350830078
1682879839176909600,9.72990966796875,2.5241355895996094,-8.494370460510254,19.877830505371094
1682879839193780500,9.746780517578125,5.7890448570251465,-3.832111120223999,24.319515228271484
1682879839210651400,9.7636513671875,9.216216087341309,3.3070831298828125,30.325260162353516
1682879839227522600,9.7805224609375,8.017906188964844,9.829122543334961,33.00041961669922
1682879839244400600,9.797400634765625,9.375093460083008,9.69121265411377,32.85825729370117
1682879839261268500,9.8142685546875,15.596016883850098,6.473122596740723,35.12134552001953
1682879839278133000,9.831133056640626,22.933807373046875,14.387720108032227,50.657859802246094
1682879839295007700,9.8480078125,30.19546127319336,26.138166427612305,67.90505981445312
1682879839311878700,9.864878662109374,38.92232131958008,32.21063232421875,68.98524475097656
1682879839328749600,9.88174951171875,35.15056228637695,24.156219482421875,55.71186828613281
1682879839345611000,9.898611083984376,22.47783660888672,14.83443832397461,40.39888000488281
1682879839362492200,9.9154921875,14.364409446716309,10.555530548095703,31.665542602539062
1682879839379363800,9.93236376953125,10.945499420166016,6.971286773681641,25.881629943847656
1682879839396234200,9.949234130859375,10.581544876098633,4.670224189758301,20.218767166137695
1682879839413107000,9.96610693359375,9.31076431274414,1.9631469249725342,16.08332061767578
1682879839429973000,9.982972900390624,7.113116264343262,-0.565911591053009,14.053040504455566
1682879839446850800,9.999850830078126,4.097428321838379,-4.323468208312988,14.205086708068848
1682879839463719200,10.01671923828125,3.2147557735443115,-9.30205249786377,16.739322662353516
1682879839480590600,10.033590576171875,3.988001823425293,-15.569581985473633,19.49960708618164
1682879839497461800,10.050461669921875,6.727895736694336,-19.035205841064453,22.354400634765625
1682879839514333000,10.0673330078125,8.72214126586914,-20.801633834838867,25.60698699951172
1682879839531204000,10.0842041015625,8.490859031677246,-22.565750122070312,27.777442932128906
1682879839548078300,10.101078369140625,8.107142448425293,-21.968910217285156,29.99338150024414
1682879839564943400,10.117943359375,7.063205718994141,-21.130523681640625,32.9284553527832
1682879839581817300,10.1348173828125,8.069072723388672,-20.793794631958008,35.25717544555664
1682879839598688800,10.151688720703126,10.388335227966309,-21.958206176757812,36.8636474609375
1682879839615549200,10.168549072265625,8.937650680541992,-22.48822021484375,35.34294509887695
1682879839632431000,10.18543115234375,8.092941284179688,-22.000743865966797,33.497840881347656
1682879839649301200,10.20230126953125,7.552606582641602,-21.8784236907959,31.943115234375
1682879839666175000,10.219175048828125,6.871193885803223,-20.810352325439453,29.266632080078125
1682879839683045600,10.236045654296875,8.528255462646484,-20.347259521484375,24.96756362915039
1682879839699913500,10.25291357421875,10.133615493774414,-22.566513061523438,18.17790985107422
1682879839716787000,10.269786865234375,9.270236015319824,-26.451705932617188,8.337465286254883
1682879839733658000,10.286658203125,6.212111473083496,-30.57442283630371,-1.2681941986083984
1682879839750518800,10.303518798828126,5.728889465332031,-35.71328353881836,-6.971100807189941
1682879839767401000,10.32040087890625,10.997304916381836,-38.3767204284668,-8.005338668823242
1682879839784259600,10.337259521484375,14.228139877319336,-38.23017501831055,-11.816387176513672
1682879839801143600,10.3541435546875,7.927214622497559,-43.98710632324219,-19.2796630859375
1682879839818013700,10.371013671875,5.059910774230957,-51.621578216552734,-22.81488037109375
1682879839834884900,10.387884765625,9.822562217712402,-51.18405532836914,-18.558345794677734
1682879839851753500,10.40475341796875,10.645209312438965,-47.046695709228516,-10.237615585327148
1682879839868630000,10.421630126953126,7.381043434143066,-42.17723846435547,0.28362083435058594
1682879839885498400,10.438498291015625,4.395597457885742,-37.26073455810547,12.580854415893555
1682879839902369800,10.455369873046875,2.585928440093994,-32.574913024902344,25.59246063232422
1682879839919238100,10.472238037109374,1.343595027923584,-28.219274520874023,37.32114791870117
1682879839936104000,10.48910400390625,2.8074798583984375,-19.984365463256836,45.63441467285156
1682879839952983300,10.5059833984375,4.3440141677856445,-14.745222091674805,44.676902770996094
1682879839969854700,10.522854736328124,6.342216491699219,-16.0850830078125,37.5911979675293
1682879839986724000,10.53972412109375,8.718681335449219,-19.013370513916016,30.94818687438965
1682879840003597300,10.556597412109374,9.498512268066406,-22.037113189697266,27.930694580078125
1682879840020468000,10.573468017578126,10.694273948669434,-21.931344985961914,26.22724723815918
1682879840037321200,10.5903212890625,11.610883712768555,-20.488388061523438,25.93234634399414
1682879840054210000,10.6072099609375,10.246896743774414,-17.180095672607422,24.04129981994629
1682879840071079200,10.6240791015625,10.01154613494873,-18.028894424438477,21.061338424682617
1682879840087944400,10.6409443359375,10.17313289642334,-19.280799865722656,19.931663513183594
1682879840104815400,10.6578154296875,9.99709415435791,-18.183406829833984,20.00729751586914
1682879840121692200,10.674692138671874,10.405073165893555,-15.81889533996582,21.01258659362793
1682879840138566100,10.691566162109375,10.372998237609863,-12.060630798339844,22.130359649658203
1682879840155426800,10.7084267578125,6.839231491088867,-8.81933307647705,22.540538787841797
1682879840172308500,10.72530859375,5.8940582275390625,-4.104140281677246,23.72039794921875
1682879840189163300,10.742163330078125,6.939436912536621,1.16123366355896,26.920387268066406
1682879840206051000,10.759051025390624,7.905514240264893,8.030603408813477,29.591930389404297
1682879840222919200,10.775919189453125,6.771274566650391,12.47339916229248,31.09193229675293
1682879840239793200,10.792793212890626,8.48305892944336,11.181459426879883,33.75223922729492
1682879840256664800,10.809664794921876,16.606477737426758,10.6776123046875,39.09763717651367
1682879840273536000,10.826535888671875,24.795446395874023,15.64517593383789,54.86317443847656
1682879840290406700,10.84340673828125,31.61783218383789,30.671630859375,70.17991638183594
1682879840307265300,10.860265380859374,31.688810348510742,36.0335807800293,67.55770874023438
1682879840324141800,10.877141845703125,23.324966430664062,26.55614471435547,52.84032440185547
1682879840341019100,10.89401904296875,13.995306015014648,19.725025177001953,39.37630081176758
1682879840357895000,10.91089501953125,8.727900505065918,13.967939376831055,30.146137237548828
1682879840374763000,10.927762939453125,7.609817981719971,8.711099624633789,23.180051803588867
1682879840391634000,10.944634033203124,7.361568450927734,5.005697250366211,18.036767959594727
1682879840408504800,10.9615048828125,7.476167678833008,1.8223719596862793,15.296648979187012
1682879840425376300,10.978376220703124,5.802425861358643,-1.111146092414856,13.5572509765625
1682879840442247400,10.995247314453126,2.8864023685455322,-5.346016883850098,14.338217735290527
1682879840459119000,11.012119140625,3.392578125,-10.484396934509277,16.796754837036133
1682879840475989000,11.028989013671875,6.859244346618652,-15.634893417358398,19.74535369873047
1682879840492855300,11.045855224609374,10.512313842773438,-18.830120086669922,22.17410659790039
1682879840509735000,11.06273486328125,12.072007179260254,-19.618675231933594,24.388004302978516
1682879840526603300,11.079603271484375,12.178550720214844,-18.071439743041992,27.973403930664062
1682879840543474400,11.096474365234375,11.486238479614258,-17.234973907470703,32.53937911987305
1682879840560347400,11.113347412109375,10.572452545166016,-18.72379493713379,35.55540084838867
1682879840577215700,11.1302158203125,9.697381019592285,-21.497634887695312,35.74726104736328
1682879840594088200,11.147088134765625,9.794178009033203,-21.89411735534668,36.44002914428711
1682879840610959400,11.16395947265625,8.945662498474121,-20.650197982788086,35.75105285644531
1682879840627830500,11.18083056640625,8.306011199951172,-20.342470169067383,34.8547248840332
1682879840644701400,11.197701416015626,7.81644344329834,-20.553485870361328,32.90433883666992
1682879840661572000,11.214572021484376,7.853641033172607,-20.95115089416504,29.22076416015625
1682879840678445300,11.2314453125,9.403218269348145,-22.677452087402344,23.663875579833984
1682879840695320800,11.24832080078125,9.105267524719238,-25.852460861206055,14.868656158447266
1682879840712185300,11.265185302734375,7.866918563842773,-31.930009841918945,4.381235599517822
1682879840729059000,11.28205908203125,5.471065521240234,-37.901065826416016,-5.291437149047852
1682879840745916200,11.298916259765624,7.489419937133789,-41.826988220214844,-9.707685470581055
1682879840762805200,11.31580517578125,10.371646881103516,-44.31953430175781,-12.7698335647583
1682879840779668500,11.33266845703125,7.512786865234375,-45.85792541503906,-16.450136184692383
1682879840796542200,11.349542236328125,7.154247283935547,-47.17967987060547,-18.960853576660156
1682879840813413600,11.36641357421875,8.537511825561523,-46.96102523803711,-17.1485538482666
1682879840830284800,11.383284912109374,8.965930938720703,-43.07012939453125,-11.17956829071045
1682879840847155700,11.40015576171875,7.578818321228027,-38.38235092163086,-3.7206907272338867
1682879840864018400,11.417018310546876,4.999285697937012,-34.753265380859375,4.440103054046631
1682879840880898000,11.43389794921875,3.209921360015869,-31.67991065979004,14.723836898803711
1682879840897769700,11.450769775390626,2.5621938705444336,-27.55848503112793,26.030248641967773
1682879840914641200,11.46764111328125,2.0120749473571777,-24.21826171875,34.10713195800781
1682879840931499800,11.484499755859375,4.40286922454834,-20.8145751953125,38.57627487182617
1682879840948383000,11.501383056640625,5.981877326965332,-17.323951721191406,41.225704193115234
1682879840965246500,11.51824658203125,7.5977582931518555,-14.939313888549805,41.065643310546875
1682879840982115300,11.535115234375,8.693857192993164,-13.762112617492676,35.2360954284668
1682879840998990600,11.551990478515625,9.764416694641113,-16.094417572021484,28.88869285583496
1682879841015859700,11.568859619140625,10.211685180664062,-17.4737548828125,24.17474365234375
1682879841032727300,11.585727294921876,10.625381469726562,-16.745914459228516,21.49553680419922
1682879841049603800,11.602603759765625,11.80767822265625,-15.823518753051758,18.98526954650879
1682879841066471700,11.6194716796875,11.828993797302246,-16.533958435058594,17.116832733154297
1682879841083344400,11.636344482421874,11.611479759216309,-15.878787994384766,15.146621704101562
1682879841100214000,11.653214111328126,10.529570579528809,-16.44640350341797,14.49982738494873
1682879841117083400,11.67008349609375,8.615621566772461,-16.04027557373047,13.72616195678711
1682879841133955800,11.686955810546875,6.655623435974121,-12.831645011901855,15.690903663635254
1682879841150828000,11.703828125,5.696409225463867,-9.249387741088867,18.14975357055664
1682879841167700500,11.720700439453125,6.0338263511657715,-8.983126640319824,20.43743896484375
1682879841184573200,11.7375732421875,6.3658528327941895,-6.364004135131836,23.77461051940918
1682879841201441300,11.754441162109375,6.412051200866699,1.0437806844711304,30.2509765625
1682879841218312400,11.7713125,5.301786422729492,7.224642753601074,35.49834060668945
1682879841235195400,11.7881953125,6.1857008934021,7.193297863006592,39.597896575927734
1682879841252064500,11.805064453125,6.972470760345459,10.556638717651367,45.956199645996094
1682879841268935400,11.821935302734374,11.365677833557129,18.794048309326172,59.46226501464844
1682879841285806800,11.838806884765624,16.33502769470215,29.20927619934082,67.31668090820312
1682879841302678300,11.85567822265625,14.156050682067871,35.249691009521484,64.73841857910156
1682879841319549000,11.872548828125,10.80282211303711,33.548858642578125,53.15922927856445
1682879841336420000,11.889420166015626,10.110652923583984,24.51211929321289,42.32738494873047
1682879841353282300,11.9062822265625,10.26400375366211,16.07362937927246,32.646488189697266
1682879841370163500,11.92316357421875,8.421751022338867,10.114425659179688,24.11499786376953
1682879841387034000,11.9400341796875,6.793008804321289,5.909981727600098,18.28329086303711
1682879841403905300,11.9569052734375,3.880943536758423,2.004870653152466,14.774187088012695
1682879841420766000,11.973765869140625,3.2117867469787598,-2.2236475944519043,13.388246536254883
1682879841437647400,11.9906474609375,1.4084200859069824,-6.671773910522461,13.449082374572754
1682879841454518500,12.0075185546875,1.9051792621612549,-11.075923919677734,14.125640869140625
1682879841471387100,12.02438720703125,5.465118408203125,-13.737964630126953,16.62971305847168
1682879841488263700,12.041263671875,9.91094970703125,-15.14421272277832,21.050559997558594
1682879841505132500,12.058132568359374,12.115642547607422,-16.48906707763672,25.190532684326172
1682879841522003500,12.07500341796875,13.448465347290039,-17.114063262939453,29.284223556518555
1682879841538875000,12.091875,12.926711082458496,-18.24985694885254,32.569725036621094
1682879841555732500,12.108732421875,9.956872940063477,-17.804431915283203,36.06938552856445
1682879841572619800,12.125619873046874,8.583246231079102,-19.05261993408203,39.582191467285156
1682879841589488400,12.14248828125,9.84768295288086,-20.565095901489258,40.2259635925293
1682879841606359600,12.159359619140625,9.936643600463867,-22.612422943115234,38.48123550415039
1682879841623230500,12.17623046875,8.494236946105957,-22.786399841308594,35.72228240966797
1682879841640097300,12.19309716796875,8.160821914672852,-23.079025268554688,32.157066345214844
1682879841656977700,12.209977783203126,8.295182228088379,-22.614953994750977,28.338115692138672
1682879841673844200,12.22684423828125,9.41072940826416,-24.051841735839844,21.583044052124023
1682879841690715100,12.243715087890624,7.303972244262695,-27.4843692779541,12.463332176208496
1682879841707586600,12.260586669921874,5.376613616943359,-31.97832679748535,3.3405747413635254
1682879841724457700,12.277457763671874,7.886898040771484,-38.34430694580078,-4.984395980834961
1682879841741326600,12.29432666015625,10.172432899475098,-44.43081283569336,-9.46064567565918
1682879841758203000,12.311202880859375,8.966612815856934,-44.58384323120117,-11.736221313476562
1682879841775071500,12.328071533203126,7.1080803871154785,-44.17626190185547,-16.60674285888672
1682879841791941400,12.34494140625,5.116093635559082,-48.42435073852539,-19.826120376586914
1682879841808814600,12.361814697265626,7.491880416870117,-47.56268310546875,-17.406009674072266
1682879841825674500,12.378674560546875,8.392890930175781,-43.31204605102539,-10.341118812561035
1682879841842556200,12.39555615234375,8.248880386352539,-37.99882507324219,-1.1493587493896484
1682879841859416600,12.41241650390625,6.721811294555664,-32.9647216796875,10.269403457641602
1682879841876296200,12.429296142578124,4.410438537597656,-26.532230377197266,23.243667602539062
1682879841893170000,12.446169921875,3.2465624809265137,-20.9550838470459,33.19268035888672
1682879841910041300,12.463041259765625,4.241129398345947,-19.050153732299805,35.99251937866211
1682879841926914000,12.4799140625,6.637596607208252,-16.641143798828125,36.652366638183594
1682879841943780600,12.496780517578125,7.001438140869141,-15.588273048400879,33.894508361816406
1682879841960657000,12.513656982421875,10.289551734924316,-17.500102996826172,32.46706008911133
1682879841977529900,12.53052978515625,11.22940731048584,-17.06467628479004,30.370820999145508
1682879841994394000,12.54739404296875,10.535070419311523,-15.492510795593262,27.265953063964844
1682879842011273700,12.564273681640625,13.055047988891602,-13.643726348876953,24.369037628173828
1682879842028136400,12.581136474609375,13.258957862854004,-13.330598831176758,20.71954345703125
1682879842045008000,12.5980078125,13.869997024536133,-14.671138763427734,17.627544403076172
1682879842061884200,12.61488427734375,12.657289505004883,-16.773801803588867,15.900113105773926
1682879842078752800,12.631752685546875,13.154109954833984,-15.146717071533203,14.777820587158203
1682879842095615200,12.648615234375,11.030831336975098,-14.14340591430664,15.163997650146484
1682879842112495600,12.66549560546875,9.942259788513184,-11.080473899841309,15.412792205810547
1682879842129366500,12.682366455078125,9.575605392456055,-9.08064079284668,15.654091835021973
1682879842146238000,12.699238037109374,9.045051574707031,-10.429366111755371,16.071388244628906
1682879842163108900,12.71610888671875,6.370310306549072,-11.016404151916504,17.940868377685547
1682879842179980000,12.73297998046875,5.6605024337768555,-7.073197364807129,25.266284942626953
1682879842196848000,12.74984814453125,5.406201362609863,2.8275270462036133,34.113525390625
1682879842213722600,12.76672265625,6.008362770080566,8.831047058105469,38.59046173095703
1682879842230583300,12.783583251953125,9.112786293029785,5.235077857971191,40.2657585144043
1682879842247465000,12.80046484375,13.81023120880127,3.836669445037842,44.890220642089844
1682879842264336000,12.8173359375,15.134437561035156,11.573015213012695,55.59300231933594
1682879842281203200,12.834203125,18.16555404663086,24.58014678955078,67.56599426269531
1682879842298082300,12.851082275390626,20.505949020385742,35.67730712890625,66.02128601074219
1682879842314950100,12.8679501953125,14.065835952758789,33.65202713012695,55.00273513793945
1682879842331820800,12.88482080078125,8.393491744995117,25.048500061035156,43.35151672363281
1682879842348692200,12.901692138671875,8.449495315551758,17.83123016357422,33.209693908691406
1682879842365553000,12.918552978515624,9.075592041015625,11.232781410217285,24.214927673339844
1682879842382434600,12.9354345703125,8.125585556030273,4.7154622077941895,17.975759506225586
1682879842399305500,12.952305419921874,4.816878795623779,0.014028549194335938,14.310243606567383
1682879842416177200,12.96917724609375,0.046746253967285156,-4.093184471130371,12.597036361694336
1682879842433048000,12.986048095703126,-0.4610307216644287,-7.916347503662109,12.702718734741211
1682879842449919500,13.00291943359375,3.841949224472046,-10.42782974243164,15.488810539245605
1682879842466790700,13.019790771484375,8.393592834472656,-13.060885429382324,18.612300872802734
1682879842483662300,13.036662353515625,10.023630142211914,-16.743165969848633,21.05597686767578
1682879842500532700,13.05353271484375,13.232550621032715,-18.069683074951172,24.843910217285156
1682879842517404200,13.070404052734375,14.00135612487793,-18.149349212646484,29.98554229736328
1682879842534275800,13.08727587890625,13.722051620483398,-17.822757720947266,34.22691345214844
1682879842551146500,13.104146484375,12.798751831054688,-19.867353439331055,36.716983795166016
1682879842568018000,13.121017822265625,12.438724517822266,-21.751781463623047,37.89352035522461
1682879842584889300,13.137889404296875,13.1188383102417,-23.275074005126953,38.66780090332031
1682879842601760000,13.154760009765624,13.030935287475586,-23.15111541748047,37.215118408203125
1682879842618631200,13.171631103515624,11.700928688049316,-23.107383728027344,34.70717239379883
1682879842635498000,13.188498046875,9.655946731567383,-23.09223175048828,31.84872055053711
1682879842652371000,13.205370849609375,9.956254005432129,-22.683387756347656,27.041683197021484
1682879842669247700,13.222247802734374,9.3558931350708,-23.73960304260254,17.12496566772461
1682879842686116000,13.2391162109375,6.793996334075928,-31.306503295898438,6.533928394317627
1682879842702976800,13.255976806640625,8.739709854125977,-38.801170349121094,-6.425814628601074
1682879842719858700,13.272858642578125,13.020419120788574,-44.784996032714844,-13.245702743530273
1682879842736729600,13.2897294921875,13.480049133300781,-46.45124435424805,-11.865691184997559
1682879842753590800,13.3065908203125,13.511346817016602,-42.70488739013672,-11.70767879486084
1682879842770472400,13.323472412109375,8.96813678741455,-43.03583908081055,-15.103550910949707
1682879842787341000,13.340341064453124,7.780350685119629,-44.4703483581543,-16.662094116210938
1682879842804217300,13.35721728515625,11.265213012695312,-44.22450256347656,-12.182889938354492
1682879842821083100,13.374083251953126,11.898087501525879,-40.64484786987305,-5.348603248596191
1682879842837959700,13.390959716796875,9.324766159057617,-37.54204177856445,3.3311362266540527
1682879842854828000,13.407828125,6.735398292541504,-34.806480407714844,14.386682510375977
1682879842871699500,13.424699462890626,5.571514129638672,-31.563045501708984,26.983150482177734
1682879842888573700,13.44157373046875,4.086940765380859,-27.13427734375,38.156612396240234
1682879842905451300,13.458451171875,5.308403491973877,-19.012317657470703,45.53403091430664
1682879842922315300,13.475315185546876,5.347100257873535,-11.93311595916748,43.369598388671875
1682879842939182300,13.492182373046875,6.302507400512695,-12.982355117797852,35.39704895019531
1682879842956045000,13.509045166015625,9.408604621887207,-17.819671630859375,29.47602081298828
1682879842972926700,13.5259267578125,10.668325424194336,-17.698139190673828,26.277774810791016
1682879842989797600,13.542797607421875,10.505029678344727,-16.021209716796875,23.688945770263672
1682879843006669000,13.5596689453125,11.698641777038574,-15.453132629394531,20.800731658935547
1682879843023540500,13.57654052734375,10.904891014099121,-15.481130599975586,17.665420532226562
1682879843040411400,13.593411376953124,10.076345443725586,-14.926923751831055,15.961366653442383
1682879843057282600,13.610282470703124,9.646050453186035,-14.578246116638184,15.290860176086426
1682879843074153700,13.62715380859375,11.036728858947754,-13.405783653259277,15.287921905517578
1682879843091010000,13.644010009765625,12.004634857177734,-11.67599105834961,15.578743934631348
1682879843107900400,13.660900390625,10.536900520324707,-7.479257583618164,16.513656616210938
1682879843124767700,13.677767822265626,7.314900875091553,-2.1811599731445312,17.423587799072266
1682879843141639200,13.69463916015625,4.85548734664917,1.4002257585525513,19.35268783569336
1682879843158509800,13.711509765625,7.208793640136719,4.993165016174316,22.637779235839844
1682879843175381000,13.728381103515625,8.261872291564941,11.474151611328125,26.75452423095703
1682879843192252400,13.74525244140625,6.317845344543457,13.83816146850586,31.62957763671875
1682879843209123300,13.762123291015625,5.088011741638184,17.1852970123291,37.233070373535156
1682879843226009300,13.77900927734375,10.568282127380371,23.097732543945312,48.96583938598633
1682879843242863900,13.79586376953125,19.227439880371094,28.530506134033203,62.84331130981445
1682879843259737000,13.812737060546874,21.22133445739746,33.38420486450195,67.70780944824219
1682879843276608800,13.82960888671875,17.426414489746094,29.763721466064453,61.16332244873047
1682879843293479700,13.846479736328124,12.76224422454834,19.945798873901367,46.94757843017578
1682879843310350800,13.863350830078126,7.420879364013672,9.676000595092773,33.137413024902344
1682879843327214300,13.88021435546875,3.7758944034576416,4.3186726570129395,22.378158569335938
1682879843344091000,13.8970908203125,2.5304369926452637,2.61820650100708,15.545584678649902
1682879843360964600,13.913964599609375,2.121675491333008,1.5486332178115845,11.916081428527832
1682879843377833500,13.93083349609375,1.3791399002075195,1.1053004264831543,11.232377052307129
1682879843394709500,13.94770947265625,1.7892889976501465,-1.1440658569335938,12.948432922363281
1682879843411575300,13.9645751953125,3.5329644680023193,-6.710814476013184,15.664319038391113
1682879843428451800,13.981451904296875,6.011435508728027,-10.662443161010742,18.28268814086914
1682879843445320400,13.998320556640625,8.562493324279785,-14.427942276000977,20.886096954345703
1682879843462181000,14.01518115234375,11.882007598876953,-17.105350494384766,23.278324127197266
1682879843479063000,14.03206298828125,12.832932472229004,-18.38289451599121,25.746681213378906
1682879843495921200,14.048921142578125,10.716864585876465,-17.283506393432617,28.868276596069336
1682879843512797200,14.065797119140624,10.465018272399902,-17.589096069335938,31.591201782226562
1682879843529679000,14.08267919921875,13.965436935424805,-19.889549255371094,32.3885498046875
1682879843546548000,14.0995478515625,15.681417465209961,-21.268430709838867,31.712482452392578
1682879843563419000,14.1164189453125,13.535948753356934,-20.338909149169922,30.389114379882812
1682879843580290300,14.133290283203126,10.215776443481445,-18.247753143310547,28.972787857055664
1682879843597161500,14.150161376953125,8.954793930053711,-16.084239959716797,28.915008544921875
1682879843614033000,14.167032958984375,8.509295463562012,-16.122703552246094,26.971500396728516
1682879843630904300,14.183904296875,8.463614463806152,-18.882484436035156,22.23973846435547
1682879843647777000,14.200777099609375,9.044052124023438,-21.139223098754883,15.159833908081055
1682879843664644000,14.21764404296875,7.649631500244141,-25.663158416748047,7.2222795486450195
1682879843681514800,14.2345146484375,5.714438438415527,-29.933795928955078,-2.24310302734375
1682879843698391600,14.2513916015625,6.6733078956604,-37.640865325927734,-7.593793869018555
1682879843715259600,14.268259765625,13.840348243713379,-46.14796447753906,-11.261687278747559
1682879843732131300,14.28513134765625,17.05202293395996,-47.62152099609375,-16.291015625
1682879843749002200,14.302002197265624,11.01008129119873,-48.82634735107422,-22.04475212097168
1682879843765873700,14.318873779296876,9.450638771057129,-48.56270980834961,-21.285831451416016
1682879843782744800,14.335744873046876,11.320517539978027,-44.688968658447266,-14.745650291442871
1682879843799615500,14.352615478515625,9.976567268371582,-38.78288269042969,-6.997010231018066
1682879843816487400,14.3694873046875,7.484241485595703,-34.75137710571289,2.5020532608032227
1682879843833358600,14.386358642578125,5.623485088348389,-31.067943572998047,14.390068054199219
1682879843850229800,14.403229736328125,3.7058849334716797,-27.349332809448242,26.522424697875977
1682879843867101000,14.420100830078125,4.078773021697998,-23.244871139526367,35.07283020019531
1682879843883979300,14.436979248046875,6.369582176208496,-18.633140563964844,40.35956573486328
1682879843900842500,14.453842529296875,6.601705551147461,-14.590950012207031,41.230735778808594
1682879843917714200,14.470714111328125,8.701668739318848,-14.552741050720215,37.45751190185547
1682879843934585600,14.487585693359375,9.511741638183594,-16.990894317626953,32.236785888671875
1682879843951444000,14.50444384765625,10.963272094726562,-18.935739517211914,26.84398651123047
1682879843968330800,14.521330810546875,12.11270523071289,-19.80672836303711,23.18903160095215
1682879843985196500,14.538196533203125,12.04497241973877,-18.34173583984375,21.242685317993164
1682879844002073300,14.5550732421875,10.72939395904541,-17.0506649017334,19.27102279663086
1682879844018941700,14.571941650390626,9.835073471069336,-17.812034606933594,16.898099899291992
1682879844035803000,14.588802978515625,8.69725227355957,-17.592082977294922,15.49642562866211
1682879844052684000,14.60568408203125,6.871532440185547,-17.097015380859375,15.517171859741211
1682879844069555200,14.62255517578125,6.720015048980713,-13.979835510253906,16.64801788330078
1682879844086426400,14.63942626953125,8.134581565856934,-10.121323585510254,17.67837142944336
1682879844103298000,14.656298095703125,4.89505672454834,-11.303333282470703,17.059703826904297
1682879844120169200,14.673169189453125,1.38474702835083,-12.639280319213867,17.20627784729004
1682879844137040100,14.6900400390625,-0.5412270426750183,-8.386491775512695,25.03614616394043
1682879844153911300,14.706911376953125,2.3510351181030273,4.642778396606445,36.260135650634766
1682879844170782700,14.72378271484375,1.0983296632766724,10.78278636932373,42.741455078125
1682879844187643100,14.74064306640625,-5.017852306365967,11.95916748046875,44.36859130859375
1682879844204525300,14.757525390625,-7.023069858551025,11.344011306762695,48.560760498046875
1682879844221393200,14.77439306640625,-2.939030170440674,13.581992149353027,58.37581253051758
1682879844238270000,14.79127001953125,1.7480486631393433,18.643104553222656,67.70486450195312
1682879844255138600,14.808138671875,0.2968505620956421,28.20813751220703,66.44348907470703
1682879844272009700,14.825009765625,-1.0834753513336182,30.570072174072266,54.19748306274414
1682879844288870400,14.841870361328125,-4.052443504333496,23.986133575439453,42.19462966918945
1682879844305741800,14.858741943359375,-6.026792049407959,18.488786697387695,31.248456954956055
1682879844322613000,14.875613037109375,-1.4806655645370483,14.611146926879883,23.961471557617188
1682879844339494700,14.89249462890625,2.0909199714660645,11.280448913574219,19.38522720336914
1682879844356366300,14.909366455078125,1.2626354694366455,7.075433731079102,16.53091812133789
1682879844373237200,14.9262373046875,-0.4728546142578125,1.851768970489502,14.982244491577148
1682879844390108400,14.9431083984375,-0.4703357219696045,-4.099714756011963,14.609170913696289
1682879844406967000,14.959967041015625,0.9507465362548828,-8.8203706741333,15.90148639678955
1682879844423843000,14.976843017578124,2.4622809886932373,-11.685096740722656,18.46687889099121
1682879844440722000,14.993721923828126,7.560753345489502,-13.916202545166016,22.977590560913086
1682879844457580500,15.01058056640625,11.169914245605469,-17.099679946899414,26.511009216308594
1682879844474457300,15.027457275390624,12.383630752563477,-19.674354553222656,29.575220108032227
1682879844491322600,15.044322509765625,12.819897651672363,-19.505207061767578,33.13202667236328
1682879844508197600,15.06119775390625,10.975656509399414,-19.880237579345703,35.919944763183594
1682879844525068300,15.078068359375,11.194945335388184,-22.22874641418457,37.886898040771484
1682879844541942000,15.09494189453125,12.744475364685059,-22.84979248046875,38.164608001708984
1682879844558810600,15.111810546875,13.214637756347656,-23.377769470214844,37.05685806274414
1682879844575681800,15.128681884765625,12.57458782196045,-23.004337310791016,34.986236572265625
1682879844592553500,15.145553466796875,12.169868469238281,-21.88257598876953,33.21269226074219
1682879844609425700,15.16242578125,11.225863456726074,-20.324914932250977,29.951257705688477
1682879844626295600,15.179295654296874,10.934403419494629,-20.085227966308594,25.843029022216797
1682879844643168800,15.196168701171874,11.261982917785645,-20.875911712646484,19.44786834716797
1682879844660039000,15.213038818359376,11.976421356201172,-25.465885162353516,11.04680061340332
1682879844676910600,15.22991064453125,14.751845359802246,-30.81151580810547,1.911238193511963
1682879844693780500,15.246780517578125,18.765432357788086,-40.080810546875,-4.0504045486450195
1682879844710652700,15.263652587890626,18.855966567993164,-46.37340545654297,-10.914270401000977
1682879844727523300,15.2805234375,19.205373764038086,-51.979400634765625,-19.419397354125977
1682879844744403700,15.29740380859375,15.635204315185547,-59.01578140258789,-25.010173797607422
1682879844761278000,15.31427783203125,16.4467716217041,-57.520145416259766,-20.996150970458984
1682879844778144300,15.331144287109375,12.070537567138672,-50.65386199951172,-9.623610496520996
1682879844795020300,15.348020263671875,8.379537582397461,-41.005130767822266,5.320548057556152
1682879844811889200,15.36488916015625,6.6751298904418945,-34.759578704833984,20.354808807373047
1682879844828760300,15.38176025390625,5.468034744262695,-26.506643295288086,34.75214767456055
1682879844845621000,15.39862109375,4.443898677825928,-18.886932373046875,40.16325759887695
1682879844862499800,15.415499755859376,5.314342975616455,-16.978004455566406,36.59271240234375
1682879844879375000,15.432375,8.116586685180664,-18.130584716796875,32.7056999206543
1682879844896236500,15.449236572265624,8.014080047607422,-20.318790435791016,29.55584716796875
1682879844913116400,15.466116455078126,10.361021995544434,-22.76516342163086,27.26712417602539
1682879844929987000,15.482987060546876,11.833575248718262,-22.324583053588867,27.0197811126709
1682879844946867000,15.499866943359375,11.556516647338867,-19.025381088256836,25.993146896362305
1682879844963729700,15.516729736328125,13.261495590209961,-16.12029266357422,23.371131896972656
1682879844980600800,15.533600830078125,13.52807903289795,-17.50092315673828,19.329923629760742
1682879844997474300,15.550474365234376,11.863816261291504,-18.7280216217041,16.445175170898438
1682879845014339300,15.56733935546875,10.620479583740234,-18.35222053527832,15.559259414672852
1682879845031215000,15.584215087890625,10.404340744018555,-16.29413604736328,15.46784782409668
1682879845048087600,15.601087646484375,8.353286743164062,-12.81424331665039,15.530021667480469
1682879845064957400,15.61795751953125,9.4917573928833,-10.499494552612305,16.214313507080078
1682879845081827800,15.634827880859374,9.309057235717773,-9.077985763549805,16.26549530029297
1682879845098699500,15.651699462890624,8.566186904907227,-8.40248966217041,16.445201873779297
1682879845115557600,15.6685576171875,5.90582275390625,-6.7507758140563965,19.910091400146484
1682879845132444700,15.685444580078125,2.6462249755859375,-0.5640033483505249,26.88599395751953
1682879845149313000,15.70231298828125,3.2481815814971924,5.348910808563232,33.082603454589844
1682879845166184700,15.719184814453126,7.664205074310303,4.452721118927002,34.99357604980469
1682879845183045000,15.736045166015625,11.859124183654785,0.5132653713226318,36.9954719543457
1682879845199926800,15.7529267578125,12.764578819274902,3.179503917694092,45.52862548828125
1682879845216787500,15.769787353515625,7.6003499031066895,13.035282135009766,53.166507720947266
1682879845233669600,15.786669677734375,7.754496097564697,23.06807518005371,61.69643020629883
1682879845250540300,15.803540283203125,13.03781795501709,37.72685241699219,63.54197311401367
1682879845267402000,15.820402099609375,12.63304328918457,34.75481033325195,54.798179626464844
1682879845284283000,15.837282958984375,10.093737602233887,26.201885223388672,41.96973419189453
1682879845301154000,15.854154052734375,7.891064643859863,22.445396423339844,31.943286895751953
1682879845318009000,15.871009033203125,9.898836135864258,19.496143341064453,24.57888412475586
1682879845334886100,15.88788623046875,10.004833221435547,15.155481338500977,20.274410247802734
1682879845351765500,15.904765625,6.321690559387207,11.930183410644531,19.125560760498047
1682879845368631000,15.921631103515624,6.607439041137695,6.582042694091797,21.672475814819336
1682879845385497900,15.938497802734375,8.12021255493164,-2.719914436340332,24.152996063232422
1682879845402381600,15.955381591796876,7.331973552703857,-10.357125282287598,26.05499839782715
1682879845419244500,15.97224462890625,7.41807746887207,-14.00247573852539,29.651140213012695
1682879845436124200,15.989124267578125,8.136781692504883,-19.826858520507812,33.48358917236328
1682879845452995300,16.005995361328125,10.058051109313965,-23.64411163330078,36.777530670166016
1682879845469866200,16.0228662109375,10.852210998535156,-24.652969360351562,41.29754638671875
1682879845486737700,16.039737548828125,10.37752628326416,-27.94849395751953,43.42625427246094
1682879845503598300,16.056598388671876,10.293724060058594,-31.988672256469727,42.69335174560547
1682879845520481300,16.073481201171877,9.884420394897461,-33.45979309082031,40.867950439453125
1682879845537351400,16.090351318359374,11.252973556518555,-34.02595138549805,40.47924041748047
1682879845554222600,16.10722265625,9.803653717041016,-31.730037689208984,39.32761764526367
1682879845571086000,16.124086181640624,9.005505561828613,-29.94869613647461,38.67939376831055
1682879845587963100,16.140963134765624,9.820916175842285,-29.906715393066406,33.944969177246094
1682879845604836400,16.15783642578125,11.466187477111816,-28.899240493774414,25.092588424682617
1682879845621704700,16.17470458984375,7.486456394195557,-29.650981903076172,14.75525951385498
1682879845638581500,16.19158154296875,3.2095305919647217,-30.757577896118164,4.999059677124023
1682879845655454000,16.208453857421876,4.317066669464111,-34.98527526855469,-1.6140546798706055
1682879845672321000,16.225321044921873,10.6380615234375,-39.89802932739258,-7.409071922302246
1682879845689186300,16.242186279296874,17.0647029876709,-38.423683166503906,-14.213258743286133
1682879845706063600,16.259063720703125,13.099174499511719,-42.48134994506836,-21.73757553100586
1682879845722934500,16.2759345703125,9.01940631866455,-46.740386962890625,-25.338733673095703
1682879845739805400,16.292805419921876,16.001272201538086,-45.98271179199219,-22.413026809692383
1682879845756678100,16.30967822265625,18.166492462158203,-41.929725646972656,-16.21859359741211
1682879845773548300,16.32654833984375,15.789775848388672,-38.86832046508789,-8.795778274536133
1682879845790419000,16.3434189453125,10.525582313537598,-36.36306381225586,-0.3942146301269531
1682879845807291400,16.36029150390625,6.722443103790283,-33.64468002319336,10.458059310913086
1682879845824162000,16.377162109375,5.207376003265381,-30.92681884765625,21.166584014892578
1682879845841032700,16.39403271484375,5.912753582000732,-27.975069046020508,29.544750213623047
1682879845857904000,16.410904052734374,7.039165496826172,-22.95820426940918,36.160011291503906
1682879845874776800,16.42777685546875,7.110936164855957,-18.67991065979004,37.392921447753906
1682879845891650000,16.444650146484374,9.264078140258789,-19.82547378540039,34.19578170776367
1682879845908515000,16.46151513671875,9.159208297729492,-22.653392791748047,29.989952087402344
1682879845925389300,16.478389404296873,9.318902969360352,-24.868953704833984,26.8458251953125
1682879845942260700,16.4952607421875,7.213557243347168,-25.049896240234375,24.146636962890625
1682879845959132000,16.5121318359375,10.395004272460938,-24.36935043334961,23.333450317382812
1682879845976000500,16.52900048828125,12.294282913208008,-21.697071075439453,23.373825073242188
1682879845992877000,16.545876953125,11.978917121887207,-21.64842987060547,22.77120590209961
1682879846009745200,16.5627451171875,12.7063627243042,-20.962486267089844,20.69049072265625
1682879846026616600,16.579616455078124,12.610620498657227,-19.897205352783203,20.448047637939453
1682879846043479300,16.596479248046876,9.906664848327637,-16.48436737060547,22.301416397094727
1682879846060359200,16.613359130859376,7.715693473815918,-13.170316696166992,24.914569854736328
1682879846077230600,16.630230712890626,7.874338150024414,-10.471606254577637,25.527257919311523
1682879846094099700,16.647099609375,7.670868873596191,-7.035923004150391,27.6042537689209
1682879846110972400,16.663972412109374,9.971131324768066,0.24310243129730225,33.342674255371094
1682879846127846700,16.6808466796875,11.264899253845215,9.854806900024414,35.649986267089844
1682879846144715000,16.697715087890625,9.24860954284668,12.048588752746582,33.23532485961914
1682879846161586200,16.714586181640627,8.75439739227295,9.259761810302734,31.760522842407227
1682879846178442200,16.731442138671873,13.629754066467285,0.6031756401062012,38.807342529296875
1682879846195328800,16.748328857421875,19.586345672607422,7.102254867553711,51.656959533691406
1682879846212197000,16.765197021484376,28.08338165283203,24.43608856201172,70.57305145263672
1682879846229074400,16.782074462890623,31.520435333251953,41.09888458251953,72.35859680175781
1682879846245942500,16.798942626953124,24.942636489868164,35.18299865722656,58.530853271484375
1682879846262813700,16.815813720703126,19.119001388549805,20.42344856262207,42.556617736816406
1682879846279683600,16.83268359375,19.449386596679688,14.564130783081055,32.20307540893555
1682879846296550400,16.84955029296875,15.168301582336426,10.674392700195312,25.11414337158203
1682879846313427200,16.86642724609375,11.421480178833008,6.491178512573242,19.277925491333008
1682879846330299000,16.883298828125,9.069093704223633,3.2143263816833496,16.328371047973633
1682879846347169800,16.900169677734375,6.702610969543457,-1.2119797468185425,15.753976821899414
1682879846364041000,16.917041015625,5.842788219451904,-5.741201877593994,18.782318115234375
1682879846380912000,16.933912109375,7.334507942199707,-12.197135925292969,21.038026809692383
1682879846397783600,16.950783447265625,8.315108299255371,-17.799089431762695,22.718013763427734
1682879846414644000,16.96764404296875,8.031266212463379,-20.358919143676758,24.848514556884766
1682879846431523800,16.98452392578125,8.15160846710205,-21.204174041748047,28.068435668945312
1682879846448400000,17.00139990234375,9.622110366821289,-22.575136184692383,32.01702880859375
1682879846465260000,17.018260009765626,10.394134521484375,-23.615970611572266,35.67029571533203
1682879846482139400,17.035139404296874,10.045694351196289,-24.264293670654297,37.01753616333008
1682879846499010800,17.0520107421875,8.67846393585205,-27.064228057861328,36.16128921508789
1682879846515863300,17.06886328125,7.825517654418945,-27.936389923095703,33.96566390991211
1682879846532753700,17.085753662109376,8.611343383789062,-28.212871551513672,32.50843811035156
1682879846549627600,17.102627685546874,7.7661027908325195,-26.80945587158203,29.473182678222656
1682879846566495700,17.119495849609375,7.259844779968262,-25.11310577392578,25.98006820678711
1682879846583367400,17.136367431640625,8.030625343322754,-23.652156829833984,23.120203018188477
1682879846600227600,17.1532275390625,8.012237548828125,-23.20790672302246,17.0191593170166
1682879846617109200,17.170109130859377,6.002019882202148,-25.59730339050293,9.338982582092285
1682879846633981000,17.18698095703125,4.614316940307617,-27.39014434814453,2.1202569007873535
1682879846650862600,17.203862548828123,4.720154762268066,-31.625537872314453,-3.6806774139404297
1682879846667723300,17.22072314453125,7.768126010894775,-34.6265869140625,-8.544270515441895
1682879846684581600,17.23758154296875,12.237075805664062,-35.05508804321289,-14.071623802185059
1682879846701455400,17.254455322265624,8.196293830871582,-39.924949645996094,-22.098915100097656
1682879846718339300,17.27133935546875,6.412787437438965,-47.8225212097168,-26.84438705444336
1682879846735205000,17.288205078125,12.334938049316406,-50.51369094848633,-24.984405517578125
1682879846752081700,17.30508154296875,14.089522361755371,-48.24542236328125,-18.129188537597656
1682879846768950500,17.321950439453126,11.578418731689453,-44.024845123291016,-8.741454124450684
1682879846785821700,17.33882177734375,7.112504959106445,-38.340606689453125,4.15549898147583
1682879846802692900,17.35569287109375,5.388864517211914,-34.40052795410156,18.576290130615234
1682879846819564300,17.372564208984375,4.777719497680664,-31.431344985961914,31.206680297851562
1682879846836435500,17.389435546875,5.321169853210449,-26.071636199951172,37.285621643066406
1682879846853306400,17.406306396484375,7.274442672729492,-21.14591407775879,38.86996841430664
1682879846870178000,17.423177978515625,7.176377296447754,-20.567127227783203,36.949668884277344
1682879846887049200,17.44004931640625,8.325495719909668,-22.269256591796875,33.33125305175781
1682879846903920000,17.456920166015625,7.808663368225098,-23.999727249145508,30.772899627685547
1682879846920791600,17.47379150390625,7.608053207397461,-23.57670021057129,28.495323181152344
1682879846937662700,17.490662841796876,9.11484146118164,-23.761049270629883,26.90217399597168
1682879846954533600,17.50753369140625,10.54830551147461,-22.905471801757812,24.606863021850586
1682879846971403800,17.52440380859375,10.752248764038086,-22.610647201538086,22.606578826904297
1682879846988277800,17.54127783203125,11.6612548828125,-21.067575454711914,21.394420623779297
1682879847005147400,17.5581474609375,10.730968475341797,-20.003684997558594,22.668128967285156
1682879847022019000,17.57501904296875,9.000996589660645,-16.926809310913086,24.276233673095703
1682879847038872000,17.5918720703125,7.934380054473877,-13.388023376464844,24.288373947143555
1682879847055750700,17.608750732421875,7.394695281982422,-11.879838943481445,23.82678985595703
1682879847072632600,17.625632568359375,4.332632064819336,-8.749632835388184,23.995960235595703
1682879847089501200,17.642501220703124,4.245972156524658,-4.298046112060547,27.46436309814453
1682879847106374000,17.659373779296875,7.428529262542725,1.987941026687622,31.426876068115234
1682879847123249200,17.676249267578125,7.075305938720703,8.31201457977295,34.595741271972656
1682879847140117200,17.6931171875,6.703498840332031,9.77157211303711,36.424949645996094
1682879847156988700,17.70998876953125,6.421377658843994,8.238090515136719,39.18939971923828
1682879847173859600,17.726859619140626,9.584943771362305,12.944181442260742,52.02278137207031
1682879847190730800,17.743730712890624,17.054744720458984,24.456523895263672,69.69731140136719
1682879847207598600,17.7605986328125,17.44944953918457,33.202735900878906,73.40972900390625
1682879847224476200,17.77747607421875,13.709443092346191,33.39531707763672,68.13267517089844
1682879847241342700,17.7943427734375,11.594304084777832,24.598072052001953,54.59934616088867
1682879847258218200,17.81121826171875,8.063922882080078,15.405839920043945,40.552677154541016
1682879847275082800,17.828082763671876,7.856092929840088,8.828927993774414,31.655258178710938
1682879847291962000,17.844962158203124,9.052212715148926,5.296288967132568,26.314664840698242
1682879847308829400,17.861829345703125,9.512808799743652,1.596232533454895,22.009790420532227
1682879847325690000,17.878690185546876,9.112238883972168,-1.3030247688293457,18.758739471435547
1682879847342572000,17.895572021484377,7.089513301849365,-3.515516519546509,17.37644386291504
1682879847359443000,17.91244287109375,4.579224586486816,-6.864752292633057,18.711193084716797
1682879847376296000,17.9292958984375,5.5764970779418945,-12.398666381835938,21.053268432617188
1682879847393188600,17.946188720703127,7.994222640991211,-17.799331665039062,23.387664794921875
1682879847410060500,17.963060546875,10.076428413391113,-21.615694046020508,25.44293212890625
1682879847426927900,17.979927978515626,9.499236106872559,-22.427841186523438,28.31478500366211
1682879847443804400,17.996804443359373,10.67764949798584,-22.50908660888672,32.199764251708984
1682879847460670700,18.013670654296874,13.036968231201172,-23.633703231811523,35.573333740234375
1682879847477541600,18.030541748046875,12.333474159240723,-24.878768920898438,35.68440628051758
1682879847494413300,18.047413330078125,10.489805221557617,-25.93185806274414,35.00401306152344
1682879847511283000,18.064282958984375,9.286046981811523,-26.539066314697266,33.863399505615234
1682879847528156700,18.08115673828125,8.379234313964844,-27.044456481933594,32.528621673583984
1682879847545026600,18.098026611328127,8.472859382629395,-25.84647560119629,30.032739639282227
1682879847561897200,18.114897216796876,7.673437595367432,-24.16619873046875,26.572065353393555
1682879847578769200,18.13176904296875,7.874063014984131,-25.062816619873047,21.537424087524414
1682879847595629800,18.1486298828125,8.86398696899414,-26.171493530273438,14.935302734375
1682879847612511500,18.165511474609374,7.701663494110107,-26.337722778320312,6.15341854095459
1682879847629382700,18.182382568359376,5.261438369750977,-28.14269256591797,-0.34398841857910156
1682879847646254000,18.199254150390626,4.534554481506348,-30.030961990356445,-4.411383628845215
1682879847663125200,18.216125244140624,6.155101776123047,-33.286163330078125,-5.546813011169434
1682879847679993300,18.232993408203125,10.637980461120605,-34.698402404785156,-9.224672317504883
1682879847696867800,18.249867919921876,9.633211135864258,-37.268348693847656,-16.67826271057129
1682879847713739000,18.266739013671874,7.4489946365356445,-44.324378967285156,-23.83563995361328
1682879847730610200,18.283610107421875,10.89051628112793,-50.977664947509766,-26.07704734802246
1682879847747481300,18.3004814453125,14.173781394958496,-49.91838073730469,-20.60422134399414
1682879847764352500,18.3173525390625,12.039725303649902,-44.357418060302734,-10.86912727355957
1682879847781226500,18.3342265625,6.444257736206055,-39.717708587646484,0.028141021728515625
1682879847798094000,18.351093994140626,1.8037550449371338,-36.493717193603516,13.659202575683594
1682879847814966300,18.36796630859375,1.0758657455444336,-31.426706314086914,28.908273696899414
1682879847831839500,18.384839599609375,1.1326382160186768,-26.93100929260254,38.58652877807617
1682879847848706800,18.401706787109376,3.624020576477051,-22.24074363708496,39.53609085083008
1682879847865569500,18.418569580078124,6.346930027008057,-21.561141967773438,37.18986892700195
1682879847882440400,18.4354404296875,7.717591285705566,-21.579153060913086,34.470977783203125
1682879847899311000,18.45231103515625,9.435273170471191,-22.307899475097656,31.24553871154785
1682879847916196000,18.469196044921876,10.873618125915527,-21.748279571533203,28.58238983154297
1682879847933051400,18.486051513671875,10.269562721252441,-20.90163803100586,25.454172134399414
1682879847949936000,18.50293603515625,10.57715129852295,-20.801612854003906,22.203960418701172
1682879847966797000,18.519797119140627,10.023811340332031,-21.332149505615234,20.74942970275879
1682879847983667700,18.536667724609377,10.724041938781738,-20.794597625732422,20.181297302246094
1682879848000542700,18.553542724609375,10.590801239013672,-18.558279037475586,20.7606258392334
1682879848017411000,18.5704111328125,9.920267105102539,-15.775622367858887,20.43207550048828
1682879848034286600,18.58728662109375,9.192663192749023,-14.950874328613281,20.040552139282227
1682879848051155200,18.6041552734375,8.360751152038574,-13.237960815429688,19.698497772216797
1682879848068026000,18.621026123046875,7.524173259735107,-10.912687301635742,20.75519561767578
1682879848084895200,18.637895263671876,6.024652004241943,-9.101048469543457,23.713916778564453
1682879848101766400,18.654766357421874,5.52334451675415,-4.747851371765137,27.892534255981445
1682879848118638800,18.671638916015624,7.6783857345581055,1.0826852321624756,35.577423095703125
1682879848135502600,18.688502685546876,6.325351715087891,6.865262031555176,41.067386627197266
1682879848152382500,18.705382568359376,8.315771102905273,5.0185699462890625,44.91643142700195
1682879848169254000,18.72225390625,10.734640121459961,9.002301216125488,53.0650634765625
1682879848186123000,18.739123046875,13.97948932647705,19.778644561767578,69.9622802734375
1682879848202995700,18.75599560546875,18.3985595703125,31.782325744628906,74.47291564941406
1682879848219869700,18.77286962890625,15.24825668334961,32.7431640625,68.21398162841797
1682879848236736500,18.789736572265625,10.204960823059082,30.570634841918945,54.45048522949219
1682879848253620000,18.806619873046873,4.225498199462891,23.850849151611328,43.564186096191406
1682879848270480000,18.82347998046875,2.5984249114990234,14.628778457641602,33.51668930053711
1682879848287360300,18.8403603515625,6.809323310852051,7.177247047424316,25.19512939453125
1682879848304232000,18.85723193359375,8.697931289672852,2.1294925212860107,18.666728973388672
1682879848321100300,18.874100341796876,6.148800849914551,-0.9960687160491943,14.558751106262207
1682879848337976000,18.89097607421875,3.3096094131469727,-3.2580783367156982,12.098161697387695
1682879848354845200,18.90784521484375,1.8617396354675293,-5.769412517547607,12.831786155700684
1682879848371716400,18.92471630859375,1.6703593730926514,-9.324039459228516,15.214751243591309
1682879848388577300,18.941577392578125,5.163966178894043,-14.284809112548828,18.24172019958496
1682879848405458700,18.958458740234374,11.396716117858887,-17.36649513244629,21.737577438354492
1682879848422330400,18.975330322265624,13.024003028869629,-18.771730422973633,24.51685333251953
1682879848439201300,18.992201171875,10.377951622009277,-19.849292755126953,27.047941207885742
1682879848456073000,19.009072998046875,8.973729133605957,-22.040800094604492,28.63670539855957
1682879848472943900,19.02594384765625,9.625321388244629,-24.613479614257812,29.899120330810547
1682879848489814800,19.042814697265626,11.331525802612305,-25.673362731933594,31.89930534362793
1682879848506677000,19.059677001953126,13.236431121826172,-25.485511779785156,33.76443862915039
1682879848523557600,19.0765576171875,11.745658874511719,-24.443756103515625,35.1673469543457
1682879848540428500,19.093428466796876,11.437728881835938,-23.884811401367188,34.71833419799805
1682879848557300200,19.11030029296875,11.06281852722168,-24.84237289428711,32.52351760864258
1682879848574171100,19.127171142578124,11.237399101257324,-24.358186721801758,28.35118865966797
1682879848591041800,19.144041748046874,11.978559494018555,-23.96054458618164,21.63939094543457
1682879848607913700,19.160913818359376,12.412111282348633,-25.392024993896484,12.894721984863281
1682879848624785200,19.17778515625,9.357699394226074,-29.618778228759766,3.1360788345336914
1682879848641656000,19.194656005859375,6.161653518676758,-36.30769729614258,-8.701699256896973
1682879848658527500,19.211527587890625,6.757258415222168,-43.17334747314453,-15.023823738098145
1682879848675394600,19.22839453125,8.8900728225708,-43.898094177246094,-16.328670501708984
1682879848692269600,19.24526953125,12.148833274841309,-39.597694396972656,-18.743680953979492
1682879848709138200,19.26213818359375,6.849198341369629,-42.326515197753906,-21.951778411865234
1682879848726014700,19.2790146484375,1.7129278182983398,-44.06631088256836,-21.662029266357422
1682879848742883600,19.295883544921875,6.241333961486816,-40.21921157836914,-15.396690368652344
1682879848759754800,19.312754638671876,7.16951847076416,-36.055503845214844,-8.384428024291992
1682879848776626000,19.3296259765625,5.903964042663574,-32.24361801147461,-1.295186996459961
1682879848793497300,19.346497314453124,3.396383762359619,-30.00997543334961,6.806788444519043
1682879848810368500,19.363368408203126,3.0700173377990723,-27.44213104248047,16.92060089111328
1682879848827237000,19.380237060546875,3.4966940879821777,-24.217811584472656,25.782625198364258
1682879848844113000,19.39711279296875,6.135232448577881,-19.262598037719727,32.06625747680664
1682879848860982300,19.413982177734376,7.640194416046143,-15.014771461486816,33.96259689331055
1682879848877853200,19.430853271484374,8.858562469482422,-15.336089134216309,31.96760368347168
1682879848894724600,19.447724609375,11.193137168884277,-17.038394927978516,29.07010841369629
1682879848911595800,19.464595703125,12.15158462524414,-19.23270034790039,25.55975914001465
1682879848928467200,19.48146728515625,10.874935150146484,-21.040699005126953,22.091556549072266
1682879848945337600,19.498337646484377,7.370767593383789,-20.397323608398438,19.959247589111328
1682879848962209300,19.515209228515626,10.568859100341797,-18.221071243286133,19.424367904663086
1682879848979080700,19.532080810546876,13.810012817382812,-17.969562530517578,18.863054275512695
1682879848995951900,19.548951904296874,15.121098518371582,-18.604921340942383,16.36661720275879
1682879849012823300,19.5658232421875,12.557780265808105,-18.706226348876953,15.023286819458008
1682879849029694200,19.582694091796874,7.566568851470947,-16.860492706298828,14.457114219665527
1682879849046565400,19.5995654296875,8.424285888671875,-15.04724407196045,16.84013557434082
1682879849063434000,19.61643408203125,9.859251976013184,-11.820352554321289,19.079423904418945
1682879849080310000,19.63331005859375,9.619475364685059,-11.123371124267578,19.502405166625977
1682879849097179100,19.65017919921875,6.640013694763184,-10.835906982421875,20.71213150024414
1682879849114050000,19.667050048828123,-0.6563736200332642,-5.499588966369629,28.593481063842773
1682879849130917600,19.683917724609376,0.12654949724674225,6.1690473556518555,38.29631042480469
1682879849147792600,19.700792724609375,9.925261497497559,10.793119430541992,45.19371795654297
1682879849164661200,19.7176611328125,10.925651550292969,9.083356857299805,46.8203125
1682879849181535200,19.73453515625,11.91105842590332,11.027687072753906,50.26219940185547
1682879849198405400,19.7514052734375,12.9088716506958,17.36083221435547,63.420631408691406
1682879849215267600,19.768267578125,14.619863510131836,31.37299919128418,73.37138366699219
1682879849232148700,19.785148681640624,11.641783714294434,38.84669876098633,69.17095947265625
1682879849249020200,19.802020263671874,8.856499671936035,31.477092742919922,54.78832244873047
1682879849265891300,19.818891357421876,4.633997917175293,23.474971771240234,40.45043182373047
1682879849282762500,19.835762451171874,3.546844005584717,18.159008026123047,30.986364364624023
1682879849299633400,19.85263330078125,5.256250381469727,12.699169158935547,24.281444549560547
1682879849316497200,19.8694970703125,5.015476226806641,7.151224136352539,18.739482879638672
1682879849333376300,19.886376220703124,4.257632732391357,2.21120285987854,15.172398567199707
1682879849350247200,19.9032470703125,3.99035906791687,-2.8350815773010254,13.826021194458008
1682879849367103500,19.920103515625,4.259176254272461,-7.477432727813721,14.77474308013916
1682879849383990000,19.936989990234373,4.734476089477539,-10.928796768188477,17.058500289916992
1682879849400861200,19.953861083984375,5.424389839172363,-14.463277816772461,18.830142974853516
1682879849417732000,19.970732177734376,8.413341522216797,-17.782455444335938,21.92802619934082
1682879849434603300,19.987603271484375,11.732781410217285,-18.38873291015625,26.182167053222656
1682879849451472000,20.004471923828124,12.491952896118164,-19.701854705810547,30.28421401977539
1682879849468345600,20.021345703125,11.143312454223633,-20.853811264038086,32.68474197387695
1682879849485217300,20.03821728515625,9.85949420928955,-23.420337677001953,33.53914260864258
1682879849502085000,20.055085205078125,9.78209114074707,-25.2607479095459,33.8249397277832
1682879849518959400,20.07195947265625,9.79952621459961,-25.764854431152344,33.28068161010742
1682879849535827700,20.08882763671875,10.193431854248047,-26.070981979370117,33.013160705566406
1682879849552702000,20.105701904296875,8.96939468383789,-23.810516357421875,32.63859558105469
1682879849569559000,20.12255908203125,7.2193603515625,-22.27110481262207,32.5631217956543
1682879849586444500,20.139444580078123,6.725435256958008,-25.554386138916016,29.58979034423828
1682879849603315500,20.1563154296875,10.62497329711914,-26.41521644592285,21.95440101623535
1682879849620186600,20.1731865234375,7.98259162902832,-29.199092864990234,11.872842788696289
1682879849637058300,20.190058349609377,4.19665002822876,-33.2873649597168,-0.5875139236450195
1682879849653929200,20.20692919921875,4.5114288330078125,-37.273895263671875,-10.637293815612793
1682879849670798600,20.223798583984376,9.532804489135742,-43.266204833984375,-14.338211059570312
1682879849687671800,20.240671875,11.645483016967773,-42.992488861083984,-16.066383361816406
1682879849704543000,20.25754296875,9.999041557312012,-40.710750579833984,-20.522056579589844
1682879849721411600,20.27441162109375,6.8959245681762695,-42.43524169921875,-24.4019775390625
1682879849738288400,20.291288330078125,7.000785827636719,-44.94514083862305,-22.720748901367188
1682879849755156500,20.308156494140626,9.906368255615234,-42.95534133911133,-16.66082000732422
1682879849772027600,20.325027587890624,9.12466812133789,-38.671756744384766,-7.793261528015137
1682879849788899000,20.341899169921874,6.3237714767456055,-34.591644287109375,1.6998138427734375
1682879849805772500,20.3587724609375,4.867781639099121,-33.63005828857422,13.283422470092773
1682879849822639000,20.37563916015625,4.2496514320373535,-31.661108016967773,25.669567108154297
1682879849839515400,20.392515380859376,3.8069794178009033,-28.680173873901367,34.87290573120117
1682879849856384300,20.40938427734375,5.92911434173584,-21.908447265625,41.76337814331055
1682879849873242400,20.426242431640624,5.299559116363525,-15.401860237121582,41.45960998535156
1682879849890115600,20.443115478515626,8.29682445526123,-15.76582145690918,34.08268737792969
1682879849906989600,20.459989501953125,7.476672172546387,-19.787004470825195,26.151611328125
1682879849923865900,20.476865966796876,9.838217735290527,-23.358617782592773,22.904003143310547
1682879849940743200,20.4937431640625,10.955636978149414,-22.42308807373047,23.134756088256836
1682879849957609000,20.51060888671875,12.61195182800293,-19.143625259399414,23.63836097717285
1682879849974485200,20.5274853515625,11.341743469238281,-18.172611236572266,21.733247756958008
1682879849991354400,20.544354248046876,11.184743881225586,-19.586528778076172,20.18585777282715
1682879850008224000,20.56122412109375,9.305384635925293,-19.39175033569336,19.107778549194336
1682879850025096400,20.578096435546875,7.573510646820068,-17.65966033935547,19.043476104736328
1682879850041967600,20.594967529296873,7.288975238800049,-14.11862564086914,21.556339263916016
1682879850058837800,20.611837646484375,9.358026504516602,-8.726223945617676,23.80453109741211
1682879850075700200,20.6287001953125,10.229052543640137,-4.984801769256592,23.47151756286621
1682879850092578600,20.64557861328125,5.262856960296631,-4.395299434661865,21.911865234375
1682879850109455000,20.662455078125,1.6729656457901,-0.9234533309936523,24.062213897705078
1682879850126323200,20.6793232421875,3.1952342987060547,5.728392601013184,28.21363067626953
1682879850143194600,20.696194580078124,4.2227325439453125,4.989860534667969,33.54859924316406
1682879850160063500,20.7130634765625,1.898611068725586,1.4775545597076416,39.088443756103516
1682879850176939800,20.729939697265625,-1.4334298372268677,3.194359064102173,53.85143280029297
1682879850193806600,20.746806640625,7.696887969970703,16.98451805114746,75.33821105957031
1682879850210681600,20.763681640625,13.829862594604492,32.227684020996094,80.61085510253906
1682879850227543600,20.78054345703125,13.379895210266113,35.12668228149414,69.70445251464844
1682879850244422000,20.797421875,8.876306533813477,27.695049285888672,53.94914245605469
1682879850261290000,20.8142900390625,4.449253082275391,20.868911743164062,39.25962829589844
1682879850278168000,20.83116796875,3.2372524738311768,14.894775390625,29.9150447845459
1682879850295032800,20.84803271484375,2.9250290393829346,10.364431381225586,22.595653533935547
1682879850311910100,20.86491015625,1.8041191101074219,6.454932689666748,16.961143493652344
1682879850328779800,20.88177978515625,1.4219417572021484,3.362029552459717,13.51298999786377
1682879850345638700,20.898638671875,2.039156675338745,-0.6651351451873779,12.472834587097168
1682879850362514000,20.915513916015627,2.625943899154663,-5.227395534515381,12.997003555297852
1682879850379392000,20.93239208984375,4.652233123779297,-9.049680709838867,15.040410041809082
1682879850396263200,20.94926318359375,7.2976884841918945,-12.582639694213867,17.714035034179688
1682879850413134300,20.96613427734375,10.070108413696289,-15.738204002380371,20.496112823486328
1682879850430002700,20.983002685546875,11.28800106048584,-16.849058151245117,23.47011947631836
1682879850446879200,20.999879150390626,11.458693504333496,-18.007068634033203,27.644485473632812
1682879850463747800,21.016747802734375,11.997016906738281,-18.537002563476562,33.0324592590332
1682879850480618800,21.03361865234375,12.437667846679688,-21.101566314697266,35.886558532714844
1682879850497477600,21.0504775390625,12.72445297241211,-23.894794464111328,35.88266372680664
1682879850514361600,21.067361572265625,12.781673431396484,-25.946338653564453,35.490203857421875
1682879850531233300,21.0842333984375,11.899636268615723,-25.47177505493164,35.481666564941406
1682879850548109600,21.101109619140626,10.475881576538086,-24.518146514892578,34.4051399230957
1682879850564967000,21.117966796875,9.003662109375,-24.678085327148438,32.12875747680664
1682879850581847600,21.13484765625,9.353281021118164,-23.926166534423828,27.865192413330078
1682879850598720000,21.151719970703127,11.217074394226074,-25.283214569091797,21.40111541748047
1682879850615578400,21.168578369140626,12.026433944702148,-27.93935775756836,10.545280456542969
1682879850632460300,21.185460205078126,7.282899379730225,-33.24802017211914,-2.0481066703796387
1682879850649331000,21.2023310546875,4.829878330230713,-37.72809982299805,-12.708975791931152
1682879850666202400,21.219202392578126,7.053383827209473,-41.08606719970703,-15.534750938415527
1682879850683073500,21.236073486328124,10.910043716430664,-41.869266510009766,-15.860251426696777
1682879850699947800,21.25294775390625,11.283650398254395,-38.78074645996094,-18.86655616760254
1682879850716816000,21.26981591796875,4.219506740570068,-40.25760269165039,-21.713857650756836
1682879850733687600,21.2866875,2.650509834289551,-39.99929428100586,-19.922779083251953
1682879850750545400,21.30354541015625,6.729074478149414,-36.432247161865234,-13.955262184143066
1682879850767432200,21.32043212890625,8.577178955078125,-32.863826751708984,-6.851200103759766
1682879850784301300,21.33730126953125,7.745517253875732,-29.976980209350586,0.5330486297607422
1682879850801172000,21.354171875,6.202020645141602,-28.220165252685547,8.651496887207031
1682879850818043100,21.371043212890626,5.587616920471191,-25.23065185546875,17.5288028717041
1682879850834914600,21.38791455078125,5.696909427642822,-19.70676040649414,25.447214126586914
1682879850851785500,21.404785400390626,8.64556884765625,-14.326900482177734,30.15799903869629
1682879850868657000,21.421656982421876,11.062066078186035,-11.871792793273926,30.266260147094727
1682879850885520000,21.438519775390624,11.894575119018555,-13.815004348754883,27.546369552612305
1682879850902399200,21.455399169921876,12.966694831848145,-16.257427215576172,24.890108108520508
1682879850919268400,21.472268310546873,13.738475799560547,-16.740928649902344,22.418746948242188
1682879850936144400,21.489144287109376,13.401514053344727,-15.936640739440918,20.202877044677734
1682879850953013000,21.506012939453125,11.385692596435547,-14.872238159179688,17.5898494720459
1682879850969884400,21.522884521484375,9.070528030395508,-13.392444610595703,16.126808166503906
1682879850986755800,21.539755859375,9.098050117492676,-12.583145141601562,14.956466674804688
1682879851003626500,21.55662646484375,10.613365173339844,-14.064950942993164,13.921365737915039
1682879851020498200,21.573498291015625,14.453628540039062,-14.012910842895508,12.480289459228516
1682879851037369300,21.590369384765626,16.74250602722168,-11.890477180480957,12.432159423828125
1682879851054240300,21.607240234375,14.595551490783691,-9.868172645568848,11.90207576751709
1682879851071113200,21.62411328125,9.9765043258667,-7.652442932128906,12.625839233398438
1682879851087981000,21.64098095703125,4.888811111450195,-6.377859115600586,14.596945762634277
1682879851104853800,21.657853759765626,8.447992324829102,-1.9262516498565674,18.22730827331543
1682879851121725400,21.674725341796876,17.87967300415039,3.392103672027588,25.26552963256836
1682879851138596600,21.6915966796875,23.00514030456543,7.552589416503906,31.211257934570312
1682879851155454200,21.7084541015625,20.117830276489258,12.296079635620117,32.850948333740234
