time,seconds_elapsed,z,y,x
1682879829594108400,0.1471083984375,0.588874101638794,-0.096211276948452,-0.07620543986558914
1682879829610974500,0.163974365234375,0.5528330206871033,-0.13545936346054077,0.25045475363731384
1682879829627852300,0.180852294921875,0.4508185386657715,0.09560041129589081,0.5618433356285095
1682879829644700400,0.197700439453125,0.29657506942749023,0.5097670555114746,0.7840455174446106
1682879829661591300,0.21459130859375,-0.05742133408784866,0.6809620261192322,0.9260717034339905
1682879829678456800,0.231456787109375,-0.6354525685310364,0.2871066629886627,0.836885392665863
1682879829695329000,0.2483291015625,-1.3124439716339111,-0.26190847158432007,0.3651446998119354
1682879829712205300,0.265205322265625,-1.558011770248413,-0.34406983852386475,0.2422080636024475
1682879829729065700,0.282065673828125,-1.4370604753494263,-0.23411411046981812,0.44318273663520813
1682879829745946400,0.2989462890625,-0.984867513179779,-0.6496551632881165,0.8817839622497559
1682879829762819800,0.31581982421875,-0.20234911143779755,-0.8332201838493347,1.154382586479187
1682879829779689700,0.332689697265625,0.041233405470848083,-0.6966918110847473,1.377501130104065
1682879829796561200,0.34956103515625,-0.008857546374201775,-0.18967366218566895,1.2848023176193237
1682879829813429800,0.3664296875,-0.303600013256073,0.03833179548382759,0.8985827565193176
1682879829830295600,0.383295654296875,-0.8683449625968933,0.3150537610054016,0.33658674359321594
1682879829847174100,0.400174072265625,-0.46822822093963623,-0.21242839097976685,-0.030237829312682152
1682879829864045300,0.41704541015625,0.4778493344783783,-0.2588541507720947,-0.19165897369384766
1682879829880916700,0.433916748046875,1.3933836221694946,0.2837468981742859,-0.17760907113552094
1682879829897789400,0.45078955078125,1.2625057697296143,0.6467535495758057,-0.29504790902137756
1682879829914657300,0.4676572265625,0.5079344511032104,0.6849326491355896,-0.6186537742614746
1682879829931527400,0.48452734375,0.026572637259960175,0.32268956303596497,-1.027475357055664
1682879829948403500,0.501403564453125,0.16203200817108154,-0.08200865983963013,-1.3115277290344238
1682879829965262800,0.518262939453125,0.6047565937042236,-0.3246748745441437,-1.3474160432815552
1682879829982143200,0.535143310546875,0.7881689071655273,-0.10842858254909515,-1.2110403776168823
1682879829999011000,0.552010986328125,0.3831652104854584,0.3744603991508484,-1.2687671184539795
1682879830015889200,0.56888916015625,0.018478672951459885,0.9289733171463013,-1.3826935291290283
1682879830032756700,0.5857568359375,-0.11316278576850891,0.6785185933113098,-1.2246321439743042
1682879830049625900,0.6026259765625,-0.29245173931121826,0.1814269721508026,-0.8193230032920837
1682879830066488800,0.61948876953125,-0.5229006409645081,-0.20265454053878784,-0.3254384696483612
1682879830083370200,0.636370361328125,-0.6313292384147644,-0.09575312584638596,-0.01970040425658226
1682879830100241200,0.6532412109375,-0.4634940028190613,0.46547931432724,-0.19120082259178162
1682879830117112600,0.670112548828125,-0.144622340798378,0.7284567952156067,-0.6114761233329773
1682879830133982700,0.686982666015625,-0.04138612002134323,0.836885392665863,-0.7819074988365173
1682879830150856400,0.7038564453125,-0.028405234217643738,0.5106833577156067,-0.6343835592269897
1682879830167726000,0.72072607421875,-0.0754418596625328,0.05910121276974678,-0.24694228172302246
1682879830184597000,0.737596923828125,-0.21410827338695526,-0.5407684445381165,0.13775011897087097
1682879830201465000,0.754465087890625,-0.33505958318710327,-0.7287622094154358,0.16004669666290283
1682879830218341600,0.771341552734375,-0.36331209540367126,-0.3666718602180481,0.10644327104091644
1682879830235210500,0.78821044921875,-0.16951510310173035,0.1774563491344452,0.14019356667995453
1682879830252081700,0.80508154296875,0.11545353382825851,0.47189339995384216,0.1488984078168869
1682879830268952600,0.82195263671875,0.2076941877603531,0.48716503381729126,0.10919216275215149
1682879830285823700,0.83882373046875,0.0959058403968811,0.26221391558647156,0.13377949595451355
1682879830302695000,0.85569482421875,0.03375030308961868,0.07284568250179291,0.2932153046131134
1682879830319565800,0.87256591796875,0.07849618047475815,-0.23548854887485504,0.408363401889801
1682879830336426500,0.889426513671875,0.14996741712093353,-0.2148718535900116,0.4092797040939331
1682879830353308400,0.906308349609375,0.2025018334388733,-0.06765332818031311,0.275347501039505
1682879830370164500,0.92316455078125,0.1417207419872284,0.15775595605373383,0.17012597620487213
1682879830387050500,0.940050537109375,0.06750060617923737,0.2509129047393799,0.15042556822299957
1682879830403908900,0.956908935546875,0.020922135561704636,0.11667526513338089,0.1719585657119751
1682879830420792600,0.97379248046875,0.01664607785642147,-0.054825156927108765,0.2249511331319809
1682879830437663700,0.990663818359375,0.07956519722938538,-0.1840231567621231,0.22143864631652832
1682879830454522600,1.007522705078125,0.19379699230194092,-0.24495697021484375,0.11026117950677872
1682879830471406300,1.02440625,0.25045475363731384,-0.25931230187416077,-0.06933320313692093
1682879830488281300,1.04128125,0.14049901068210602,-0.04795292019844055,-0.2025018334388733
1682879830505147100,1.058147216796875,0.012522737495601177,0.15225815773010254,-0.27840182185173035
1682879830522019800,1.075019775390625,-0.009926560334861279,0.26221391558647156,-0.2451096773147583
1682879830538890500,1.091890380859375,0.04566217586398125,0.24007004499435425,-0.12339477986097336
1682879830555751400,1.10875146484375,0.08689557760953903,0.11621711403131485,-0.0022907445672899485
1682879830572632800,1.1256328125,0.07009678333997726,-0.001527163083665073,0.04795292019844055
1682879830589504300,1.142504150390625,0.09544769674539566,-0.011301007121801376,0.03573561832308769
1682879830606375000,1.159375,0.15241087973117828,0.11682797968387604,-0.005345070734620094
1682879830623246300,1.176246337890625,0.20311269164085388,0.25244006514549255,-0.004734205547720194
1682879830640117800,1.19311767578125,0.1921171247959137,0.2594650089740753,0.06765332818031311
1682879830656988400,1.209988525390625,0.1618792861700058,0.09605856239795685,0.156686931848526
1682879830673859600,1.226859619140625,0.12247848510742188,-0.08155050873756409,0.20097467303276062
1682879830690720000,1.243719970703125,0.10476338863372803,-0.14538592100143433,0.16294831037521362
1682879830707591200,1.260591064453125,0.11209376901388168,-0.11102475970983505,0.08445212244987488
1682879830724463000,1.277463134765625,0.1488984078168869,-0.01710422709584236,0.07406741380691528
1682879830741334500,1.29433447265625,0.16203200817108154,0.027488935738801956,0.08277224004268646
1682879830758204200,1.3112041015625,0.14446963369846344,-0.011453723534941673,0.03878994286060333
1682879830775088000,1.328088134765625,0.11591167747974396,-0.10903944820165634,-0.033597588539123535
1682879830791957500,1.34495751953125,0.11026117950677872,-0.19333885610103607,-0.06169738993048668
1682879830808827000,1.361826904296875,0.09269879758358002,-0.18325957655906677,-0.02321287989616394
1682879830825691000,1.37869091796875,0.03680463135242462,-0.09636399149894714,0.041691552847623825
1682879830842568700,1.395568603515625,-0.022449297830462456,-0.0858265683054924,0.12370020896196365
1682879830859444200,1.4124443359375,-0.02626720629632473,-0.14355333149433136,0.16890424489974976
1682879830876313300,1.429313232421875,0.02825251780450344,-0.28817567229270935,0.2047925740480423
1682879830893184000,1.44618408203125,0.01817324012517929,-0.43478333950042725,0.2295326143503189
1682879830910063600,1.463063720703125,-0.012064588256180286,-0.5044219493865967,0.28756481409072876
1682879830926926600,1.479926513671875,0.014202617108821869,-0.32360586524009705,0.3654501438140869
1682879830943797800,1.4967978515625,0.0377209298312664,-0.20082195103168488,0.44165557622909546
1682879830960668700,1.513668701171875,0.018478672951459885,-0.0806342139840126,0.3674354553222656
1682879830977537300,1.530537353515625,-0.0029016099870204926,-0.12064588814973831,0.2047925740480423
1682879830994413800,1.547413818359375,-0.0019853119738399982,-0.3055853247642517,0.05665775015950203
1682879831011271200,1.564271240234375,0.1189660057425499,-0.4069889783859253,0.04444044828414917
1682879831028153600,1.581153564453125,0.37048977613449097,-0.2718350291252136,0.26832255721092224
1682879831045018600,1.5980185546875,0.4804455041885376,0.028557950630784035,0.6223189830780029
1682879831061895200,1.614895263671875,0.361174076795578,0.1459967941045761,0.8914051055908203
1682879831078756600,1.631756591796875,0.19013181328773499,-0.19058994948863983,1.1107057332992554
1682879831095629300,1.64862939453125,0.12507465481758118,-1.0607675313949585,1.5091426372528076
1682879831112509000,1.665509033203125,0.1540907621383667,-2.3568708896636963,2.1673498153686523
1682879831129377000,1.682376953125,0.45921793580055237,-3.8426477909088135,3.1451923847198486
1682879831146253600,1.699253662109375,0.9529497623443604,-4.7389397621154785,4.134183406829834
1682879831163119400,1.716119384765625,1.5369369983673096,-4.779715061187744,4.4180827140808105
1682879831179996200,1.73299609375,2.0584630966186523,-4.631274700164795,4.107610702514648
1682879831196864500,1.749864501953125,2.3072381019592285,-4.677089691162109,3.6077702045440674
1682879831213732900,1.76673291015625,2.6051876544952393,-4.598288059234619,3.1786372661590576
1682879831230606600,1.783606689453125,2.9686524868011475,-4.053701877593994,2.37321138381958
1682879831247470300,1.80047021484375,3.4303138256073,-3.230408191680908,1.4280502796173096
1682879831264348700,1.8173486328125,3.953519821166992,-2.5633432865142822,0.6798930168151855
1682879831281218000,1.834218017578125,4.3397393226623535,-2.27211332321167,0.23090706765651703
1682879831298093300,1.85109326171875,4.521624565124512,-2.3373231887817383,0.032681290060281754
1682879831314962200,1.867962158203125,4.603480339050293,-2.51523756980896,-0.27977627515792847
1682879831331830800,1.884830810546875,4.748255729675293,-2.271807909011841,-0.6914994716644287
1682879831348707300,1.901707275390625,4.806746006011963,-1.6224581003189087,-1.3561208248138428
1682879831365559000,1.91855908203125,4.575533390045166,-1.2577714920043945,-1.937359094619751
1682879831382443800,1.93544384765625,4.329202175140381,-1.5259413719177246,-1.9712620973587036
1682879831399319600,1.952319580078125,4.11509370803833,-1.9130772352218628,-2.129934310913086
1682879831416189000,1.96918896484375,3.98085618019104,-1.8561140298843384,-3.307835340499878
1682879831433057800,1.986057861328125,3.888462781906128,-1.1986702680587769,-4.648531913757324
1682879831449931300,2.00293115234375,3.2027664184570312,-0.7973318696022034,-5.2413763999938965
1682879831466805000,2.019804931640625,2.1784982681274414,-0.8639161586761475,-5.182122707366943
1682879831483673000,2.036673095703125,1.8452712297439575,-1.352608323097229,-5.227784633636475
1682879831500544500,2.05354443359375,1.728137731552124,-1.9304869174957275,-5.279555797576904
1682879831517416000,2.070416015625,1.3214542865753174,-1.9943222999572754,-5.158145904541016
1682879831534286800,2.087286865234375,0.19562959671020508,-1.867262363433838,-4.915480136871338
1682879831551158000,2.104157958984375,-1.3000739812850952,-2.1145100593566895,-4.808272838592529
1682879831568029200,2.121029296875,-2.3014347553253174,-2.7878363132476807,-4.758792877197266
1682879831584900000,2.137900146484375,-3.093268871307373,-2.99003267288208,-4.5269694328308105
1682879831601771000,2.15477099609375,-4.244444370269775,-2.7156014442443848,-4.274224281311035
1682879831618642200,2.17164208984375,-5.232519149780273,-2.5506677627563477,-4.265824794769287
1682879831635498200,2.188498291015625,-5.819560527801514,-2.6114490032196045,-4.141819000244141
1682879831652385000,2.205385009765625,-6.403547763824463,-3.2197179794311523,-3.106555223464966
1682879831669255700,2.222255615234375,-6.964474678039551,-3.7536141872406006,-1.4193453788757324
1682879831686113500,2.239113525390625,-7.37329626083374,-3.7890443801879883,-0.16859880089759827
1682879831702998300,2.255998291015625,-7.8177008628845215,-3.6086864471435547,0.30802878737449646
1682879831719869000,2.272868896484375,-8.369159698486328,-3.935804843902588,0.28038713335990906
1682879831736740000,2.289739990234375,-8.555625915527344,-4.365853786468506,0.21960605680942535
1682879831753600800,2.306600830078125,-8.240877151489258,-4.357301712036133,0.12431107461452484
1682879831770471700,2.3234716796875,-8.123591423034668,-4.02040958404541,0.2496911734342575
1682879831787353600,2.340353515625,-8.493470191955566,-3.9406917095184326,0.5389358401298523
1682879831804222000,2.357221923828125,-8.837081909179688,-4.0799689292907715,0.7101308703422546
1682879831821100500,2.3741005859375,-8.89633560180664,-4.131587028503418,0.5254968404769897
1682879831837962800,2.390962646484375,-8.545546531677246,-3.9429824352264404,0.3121521472930908
1682879831854840600,2.407840576171875,-7.93972110748291,-3.4524576663970947,0.299476683139801
1682879831871707000,2.424706787109375,-7.355733871459961,-3.046232223510742,0.4167627990245819
1682879831888572400,2.441572509765625,-6.8491740226745605,-2.814561605453491,0.5253441333770752
1682879831905454300,2.458454345703125,-6.362772464752197,-2.520430088043213,0.4726569950580597
1682879831922323000,2.475322998046875,-5.983730316162109,-2.130392551422119,0.13820825517177582
1682879831939183000,2.49218310546875,-5.752518177032471,-1.7081319093704224,-0.29016098380088806
1682879831956064800,2.509064697265625,-5.174639701843262,-1.264491081237793,-0.6029239892959595
1682879831972935700,2.525935791015625,-4.307516098022461,-1.1899654865264893,-0.7652614116668701
1682879831989796400,2.54279638671875,-3.237738609313965,-0.8414669036865234,-1.2406673431396484
1682879832006674000,2.559673828125,-1.613753318786621,-0.055894169956445694,-1.9822577238082886
1682879832023549400,2.576549560546875,0.1598939746618271,0.5083925724029541,-2.370004415512085
1682879832040409900,2.593409912109375,1.7409659624099731,0.7948883771896362,-2.1734585762023926
1682879832057291500,2.61029150390625,3.0700559616088867,0.9101892113685608,-2.0051651000976562
1682879832074152400,2.62715234375,4.57293701171875,1.6610952615737915,-2.3629794120788574
1682879832091032800,2.64403271484375,5.624083518981934,2.573269844055176,-2.696206569671631
1682879832107905800,2.66090576171875,6.282138347625732,2.437352418899536,-2.305558204650879
1682879832124775200,2.677775146484375,7.305184841156006,1.2959506511688232,-1.2365440130233765
1682879832141637600,2.6946376953125,8.683449745178223,0.2715296149253845,-0.29046642780303955
1682879832158516700,2.711516845703125,9.354179382324219,0.40072759985923767,-0.007177666760981083
1682879832175391000,2.728390869140625,9.08539867401123,1.1520918607711792,-0.5007568001747131
1682879832192257500,2.745257568359375,8.377863883972168,1.780824899673462,-1.5178474187850952
1682879832209133800,2.7621337890625,8.080830574035645,2.0172297954559326,-2.5465445518493652
1682879832226002700,2.779002685546875,7.853589057922363,2.323120594024658,-3.000417470932007
1682879832242873600,2.79587353515625,7.546934604644775,2.498286247253418,-2.615877628326416
1682879832259745000,2.8127451171875,7.16529655456543,2.189035654067993,-1.9185750484466553
1682879832276616200,2.8296162109375,6.551682472229004,1.687667965888977,-1.53525710105896
1682879832293487000,2.846487060546875,6.2685465812683105,1.5274685621261597,-1.486387848854065
1682879832310358000,2.86335791015625,6.656292915344238,1.5305228233337402,-1.6615535020828247
1682879832327229200,2.880229248046875,7.457442760467529,1.4813482761383057,-2.074345588684082
1682879832344100400,2.897100341796875,8.089993476867676,1.3791810274124146,-2.52608060836792
1682879832360983300,2.9139833984375,7.835263252258301,1.7325665950775146,-2.679560422897339
1682879832377843000,2.930843017578125,6.986771106719971,2.057088613510132,-2.532036542892456
1682879832394712600,2.947712646484375,7.154606342315674,1.6953037977218628,-2.2232439517974854
1682879832411585300,2.964585205078125,8.022645950317383,1.068861484527588,-2.216371774673462
1682879832428445700,2.98144580078125,7.92750358581543,1.2628111839294434,-3.2571334838867188
1682879832445316400,2.99831640625,7.057937145233154,2.8797714710235596,-5.611560821533203
1682879832462198300,3.0151982421875,6.923699378967285,3.313943862915039,-7.7118682861328125
1682879832479071000,3.032071044921875,7.365049362182617,0.9282097220420837,-7.077637672424316
1682879832495928600,3.048928466796875,6.72028112411499,-1.4074335098266602,-2.5780041217803955
1682879832512809200,3.065809326171875,2.545933723449707,-1.239292860031128,1.9978348016738892
1682879832529685200,3.082685302734375,-1.6423112154006958,-1.2402092218399048,3.98895001411438
1682879832546554000,3.09955419921875,-3.9629883766174316,-1.1823296546936035,3.5263724327087402
1682879832563414300,3.116414306640625,-4.828125953674316,-0.48059824109077454,1.8541287183761597
1682879832580296400,3.13329638671875,-5.553375720977783,0.4121813178062439,0.4262312352657318
1682879832597167400,3.15016748046875,-6.194937229156494,0.6227771043777466,0.31673362851142883
1682879832614038500,3.16703857421875,-6.793585300445557,0.03588833287358284,1.6656768321990967
1682879832630909700,3.18390966796875,-7.38917875289917,-0.5838344693183899,3.14931583404541
1682879832647780400,3.2007802734375,-8.130768775939941,-1.2536481618881226,4.01430082321167
1682879832664651500,3.217651611328125,-8.797834396362305,-2.523178815841675,4.644103050231934
1682879832681522700,3.234522705078125,-9.327607154846191,-3.6561810970306396,4.991990566253662
1682879832698394400,3.251394287109375,-9.618836402893066,-4.088062763214111,4.583168983459473
1682879832715252000,3.268251953125,-9.562789916992188,-3.226895570755005,3.1112895011901855
1682879832732139000,3.285138916015625,-9.213375091552734,-2.19636607170105,1.7084373235702515
1682879832748996600,3.30199658203125,-9.394649505615234,-2.0532708168029785,1.4121677875518799
1682879832765875700,3.318875732421875,-10.073779106140137,-2.9098565578460693,1.8241963386535645
1682879832782752000,3.335751953125,-10.44823932647705,-3.3617441654205322,1.9992092847824097
1682879832799610000,3.352610107421875,-10.148762702941895,-3.1894800662994385,1.666898488998413
1682879832816492000,3.369491943359375,-9.635787963867188,-2.8345675468444824,1.330159068107605
1682879832833361000,3.38636083984375,-9.248499870300293,-2.484236240386963,0.9062185883522034
1682879832850236200,3.403236083984375,-8.849757194519043,-2.1036672592163086,0.5115996599197388
1682879832867107800,3.42010791015625,-8.729569435119629,-1.683239221572876,0.3263547718524933
1682879832883973600,3.4369736328125,-8.678104400634766,-1.0626001358032227,0.2715296149253845
1682879832900847400,3.453847412109375,-8.228201866149902,-0.6351471543312073,0.21914790570735931
1682879832917718500,3.470718505859375,-7.471951007843018,-0.3741549551486969,-0.07895433157682419
1682879832934589700,3.487589599609375,-6.0452752113342285,-0.5670356750488281,-0.6097962260246277
1682879832951458600,3.50445849609375,-4.064086437225342,-0.4437935948371887,-0.970054030418396
1682879832968334300,3.521334228515625,-1.7948747873306274,0.21991148591041565,-0.7870998978614807
1682879832985203200,3.538203125,0.5442809462547302,0.6646214127540588,-0.4651738703250885
1682879833002073900,3.555073974609375,2.7284295558929443,1.2826642990112305,-0.48029279708862305
1682879833018945000,3.571945068359375,4.6995391845703125,2.0723602771759033,-0.8329147696495056
1682879833035808500,3.58880859375,6.4113359451293945,2.322967767715454,-1.2832751274108887
1682879833052688000,3.60568798828125,8.071057319641113,2.001041889190674,-1.3365731239318848
1682879833069544400,3.62254443359375,9.550572395324707,1.3849842548370361,-0.856433093547821
1682879833086427100,3.63942724609375,10.013761520385742,1.0422887802124023,-0.14813482761383057
1682879833103303400,3.656303466796875,9.510560989379883,0.9732610583305359,0.28008171916007996
1682879833120171500,3.673171630859375,8.703913688659668,1.3975069522857666,0.09346238523721695
1682879833137043000,3.69004296875,7.989964485168457,2.0251710414886475,-0.7458664774894714
1682879833153914000,3.7069140625,7.2428765296936035,2.769663095474243,-1.984701156616211
1682879833170785500,3.72378564453125,6.737080097198486,3.431382894515991,-3.120452404022217
1682879833187656400,3.740656494140625,6.402173042297363,3.1024317741394043,-3.154049873352051
1682879833204527600,3.757527587890625,6.324746131896973,2.266157388687134,-2.0864102840423584
1682879833221401300,3.7744013671875,6.343530178070068,1.6569719314575195,-1.0639744997024536
1682879833238272300,3.791272216796875,6.440352439880371,1.5963436365127563,-0.7313584089279175
1682879833255140900,3.808140869140625,6.828710079193115,1.7528778314590454,-0.8666650652885437
1682879833272007700,3.825007568359375,7.352221488952637,2.2937989234924316,-1.391398310661316
1682879833288883000,3.841883056640625,7.501883506774902,2.9022207260131836,-2.0868682861328125
1682879833305754000,3.858754150390625,7.323816299438477,3.3366987705230713,-2.339613914489746
1682879833322611500,3.875611572265625,7.414071559906006,3.30554461479187,-2.4390323162078857
1682879833339499300,3.892499267578125,7.958657741546631,3.036916494369507,-2.855642318725586
1682879833356367400,3.909367431640625,8.28287410736084,2.7197248935699463,-3.2780556678771973
1682879833373236200,3.926236328125,7.689571857452393,2.883283853530884,-3.846465826034546
1682879833390102800,3.943102783203125,6.5781025886535645,3.6053266525268555,-5.564676761627197
1682879833406980900,3.95998095703125,5.984646797180176,3.6752707958221436,-7.865959167480469
1682879833423841500,3.976841552734375,6.199060440063477,2.7704265117645264,-7.9603376388549805
1682879833440720600,3.993720703125,6.5952067375183105,0.11438451707363129,-4.280179977416992
1682879833457597200,4.01059716796875,4.210236072540283,-2.7346909046173096,0.4024074673652649
1682879833474449200,4.02744921875,0.28267788887023926,-3.333491563796997,3.5804338455200195
1682879833491331800,4.044331787109375,-3.900069236755371,-2.3664920330047607,4.093255519866943
1682879833508210400,4.06121044921875,-6.434396266937256,-0.45784351229667664,2.191173553466797
1682879833525078500,4.07807861328125,-6.7848801612854,1.321606993675232,0.19822576642036438
1682879833541950000,4.094949951171875,-6.761514663696289,1.669647455215454,-0.30405816435813904
1682879833558821000,4.111821044921875,-7.323510646820068,0.5911648273468018,1.089020013809204
1682879833575681500,4.128681640625,-8.179027557373047,-0.9161451458930969,3.149163007736206
1682879833592563200,4.145563232421875,-8.900611877441406,-2.59098482131958,4.749477386474609
1682879833609434000,4.16243408203125,-9.370214462280273,-3.991698980331421,5.439449787139893
1682879833626305300,4.17930517578125,-9.50399398803711,-4.6914448738098145,5.285358905792236
1682879833643176700,4.1961767578125,-9.461691856384277,-4.710840225219727,4.455345630645752
1682879833660048100,4.213048095703125,-9.164505958557129,-4.014759063720703,3.2569806575775146
1682879833676916000,4.229916015625,-9.026908874511719,-3.4721579551696777,2.172236919403076
1682879833693790200,4.246790283203125,-9.365938186645508,-3.4967453479766846,1.653917670249939
1682879833710660900,4.263660888671875,-9.907012939453125,-3.6082282066345215,1.3660473823547363
1682879833727531800,4.28053173828125,-10.219928741455078,-3.27713942527771,1.159727692604065
1682879833744398800,4.29739892578125,-10.017273902893066,-3.1758882999420166,1.066265344619751
1682879833761270300,4.314270263671875,-9.469938278198242,-3.3405165672302246,1.0392345190048218
1682879833778141400,4.331141357421875,-8.783783912658691,-3.2623257637023926,0.9312640428543091
1682879833795014000,4.348013916015625,-8.455596923828125,-2.7013988494873047,0.7506006956100464
1682879833811891000,4.364890869140625,-8.56051254272461,-2.021353006362915,0.4729624092578888
1682879833828755000,4.3817548828125,-8.42703914642334,-1.8077030181884766,0.437226802110672
1682879833845623300,4.398623291015625,-7.941553592681885,-1.7632625102996826,0.48838675022125244
1682879833862498800,4.415498779296875,-7.288691520690918,-1.8099937438964844,0.40851613879203796
1682879833879374800,4.432374755859375,-6.245180606842041,-1.5012013912200928,0.10934487730264664
1682879833896243000,4.449242919921875,-4.794070243835449,-0.9133962392807007,-0.6310238242149353
1682879833913117400,4.466117431640625,-3.2064316272735596,-0.28878653049468994,-1.5236506462097168
1682879833929973200,4.48297314453125,-1.3527610301971436,0.7284567952156067,-2.1488711833953857
1682879833946847000,4.499846923828125,0.864068865776062,1.7655532360076904,-1.93766450881958
1682879833963729700,4.516729736328125,3.19665789604187,2.2682952880859375,-1.1065824031829834
1682879833980598800,4.533598876953125,5.184871673583984,2.50103497505188,-0.4787656366825104
1682879833997467400,4.55046728515625,6.7651801109313965,2.0748038291931152,0.03375030308961868
1682879834014344000,4.567343994140625,8.169864654541016,1.6033685207366943,0.6583600044250488
1682879834031200500,4.584200439453125,9.36807632446289,1.8762725591659546,1.1102476119995117
1682879834048082200,4.601082275390625,9.789421081542969,2.358245372772217,1.1513283252716064
1682879834064970500,4.617970458984375,9.43908977508545,2.6864326000213623,0.6015495657920837
1682879834081825500,4.634825439453125,8.534704208374023,2.6986498832702637,-0.47250425815582275
1682879834098697000,4.651697021484375,7.807621479034424,2.074345588684082,-1.0897835493087769
1682879834115557400,4.668557373046875,7.588626384735107,2.0441079139709473,-1.0978775024414062
1682879834132439300,4.685439208984375,7.906428813934326,2.3736696243286133,-1.1058188676834106
1682879834149310200,4.702310302734375,8.000502586364746,3.193756103515625,-1.569007396697998
1682879834166181600,4.719181640625,7.480350494384766,4.221231460571289,-2.473851442337036
1682879834183052300,4.73605224609375,6.869179725646973,4.263381481170654,-3.235600471496582
1682879834199923200,4.752923095703125,6.498231887817383,2.972623109817505,-2.844494104385376
1682879834216795000,4.769794921875,6.829015254974365,1.7311921119689941,-1.2548699378967285
1682879834233665800,4.786665771484375,7.229589939117432,1.804801344871521,-0.01237002108246088
1682879834250537200,4.803537109375,7.298770427703857,2.512946844100952,-0.1869247704744339
1682879834267408400,4.820408447265625,7.150941371917725,3.2116239070892334,-1.5045610666275024
1682879834284279300,4.837279296875,7.279681205749512,3.681532144546509,-2.6957483291625977
1682879834301150000,4.85414990234375,8.272795677185059,3.5521814823150635,-2.9778153896331787
1682879834318021400,4.871021484375,9.205586433410645,2.8759536743164062,-3.0350840091705322
1682879834334892500,4.887892578125,9.146027565002441,2.777604341506958,-4.7082438468933105
1682879834351763700,4.904763671875,8.267450332641602,3.4655911922454834,-7.986146926879883
1682879834368634600,4.921634521484375,8.017759323120117,3.8365392684936523,-8.993158340454102
1682879834385490400,4.938490478515625,8.087244987487793,1.7890715599060059,-5.108207702636719
1682879834402377000,4.955376953125,6.471659183502197,-1.0054842233657837,0.4541783034801483
1682879834419248400,4.972248291015625,2.4440717697143555,-1.4982997179031372,3.6143369674682617
1682879834436116700,4.98911669921875,-1.9112446308135986,-0.4616613984107971,3.539658546447754
1682879834452992800,5.00599267578125,-3.8531851768493652,1.0795515775680542,1.642922043800354
1682879834469861600,5.022861572265625,-4.668690204620361,1.9120081663131714,-0.3956879675388336
1682879834486732800,5.03973291015625,-5.677992343902588,2.1010711193084717,-1.258840560913086
1682879834503601400,5.056601318359375,-6.566495895385742,1.792431354522705,-0.23884831368923187
1682879834520477400,5.0734775390625,-7.087563991546631,1.0403034687042236,1.895667552947998
1682879834537345800,5.090345703125,-7.6727728843688965,-0.6417139172554016,3.9208385944366455
1682879834554217000,5.107217041015625,-8.371603012084961,-2.324800491333008,5.476253986358643
1682879834571091700,5.124091796875,-9.259800910949707,-3.5274412631988525,6.289010524749756
1682879834587955700,5.140955810546875,-9.869291305541992,-4.658153057098389,6.2548017501831055
1682879834604830200,5.157830322265625,-9.895405769348145,-5.309793472290039,5.4228034019470215
1682879834621702000,5.174701904296875,-9.59302806854248,-5.317734718322754,4.297131538391113
1682879834638572800,5.19157275390625,-9.809427261352539,-4.6688432693481445,3.2204816341400146
1682879834655443000,5.20844287109375,-10.401508331298828,-3.8788416385650635,2.060448408126831
1682879834672304600,5.2253046875,-10.424110412597656,-3.6664133071899414,1.1467467546463013
1682879834689186300,5.242186279296875,-10.325302124023438,-3.459329843521118,0.7870998978614807
1682879834706057000,5.259056884765625,-10.06843376159668,-3.400534152984619,0.8428413271903992
1682879834722925600,5.275925537109375,-9.932210922241211,-3.2149837017059326,1.033125877380371
1682879834739799300,5.29279931640625,-9.788504600524902,-2.9181032180786133,1.1421653032302856
1682879834756662300,5.309662353515625,-9.626625061035156,-2.7818803787231445,1.320690631866455
1682879834773525000,5.32652490234375,-9.276905059814453,-2.803107976913452,1.497994303703308
1682879834790410000,5.343409912109375,-9.019577980041504,-2.3678665161132812,1.517236590385437
1682879834807286500,5.36028662109375,-8.48384952545166,-1.9355264902114868,1.4141530990600586
1682879834824157400,5.377157470703125,-7.238142490386963,-1.822821855545044,1.1745411157608032
1682879834841015800,5.394015869140625,-5.265353202819824,-2.087784767150879,0.1420261710882187
1682879834857901800,5.41090185546875,-3.5405750274658203,-1.7461583614349365,-2.132988691329956
1682879834874768400,5.427768310546875,-2.3913846015930176,-0.5853615999221802,-3.9542834758758545
1682879834891639600,5.4446396484375,-0.6786713004112244,0.15836681425571442,-3.8000400066375732
1682879834908510500,5.461510498046875,1.5879441499710083,0.04841107130050659,-2.0618228912353516
1682879834925381600,5.478381591796875,3.7415497303009033,0.02871066704392433,-0.5766568183898926
1682879834942253000,5.495253173828125,5.429675579071045,0.31093040108680725,-0.14187344908714294
1682879834959123700,5.512123779296875,7.115358352661133,0.566730260848999,-0.033139441162347794
1682879834975995100,5.5289951171875,8.960171699523926,1.023046612739563,0.2935207486152649
1682879834992866000,5.545865966796875,10.371575355529785,1.7172949314117432,0.5984952449798584
1682879835009737200,5.5627373046875,10.768637657165527,2.229963541030884,0.49556443095207214
1682879835026602200,5.579602294921875,9.567371368408203,2.4755313396453857,-0.20922134816646576
1682879835043479800,5.596479736328125,8.086328506469727,1.6279559135437012,-0.8136724829673767
1682879835060350500,5.6133505859375,7.688044548034668,1.2131783962249756,-0.892779529094696
1682879835077222000,5.630221923828125,8.101600646972656,1.5627460479736328,-0.8068002462387085
1682879835094082600,5.64708251953125,8.75461483001709,2.386650562286377,-0.8365799784660339
1682879835110964000,5.6639638671875,8.907636642456055,3.3623549938201904,-1.4450017213821411
1682879835127835100,5.680835205078125,8.083732604980469,3.665496826171875,-2.0480785369873047
1682879835144704500,5.69770458984375,7.258759021759033,2.7421741485595703,-1.7513506412506104
1682879835161580000,5.714580078125,7.057937145233154,1.7238616943359375,-0.9610437750816345
1682879835178446000,5.731446044921875,7.515933036804199,1.6716327667236328,-0.536797821521759
1682879835195320800,5.74832080078125,8.27004623413086,2.4639248847961426,-1.0375546216964722
1682879835212193300,5.765193359375,8.55272388458252,3.4941492080688477,-1.921934723854065
1682879835229059300,5.782059326171875,8.307766914367676,3.576310634613037,-2.2157609462738037
1682879835245935600,5.798935546875,8.492095947265625,2.316553831100464,-1.7153096199035645
1682879835262804200,5.81580419921875,8.908705711364746,1.1574369668960571,-1.6727017164230347
1682879835279674600,5.832674560546875,8.548295974731445,1.6736180782318115,-3.2424726486206055
1682879835296547600,5.849547607421875,7.676743507385254,3.7252089977264404,-6.007707118988037
1682879835313417500,5.86641748046875,6.778618812561035,4.335616111755371,-7.899709224700928
1682879835330286000,5.8832861328125,7.018383502960205,1.6475036144256592,-7.008457183837891
1682879835347169000,5.9001689453125,7.149566650390625,-1.6565138101577759,-3.9962804317474365
1682879835364030700,5.91703076171875,5.55093240737915,-2.0085248947143555,-0.22403483092784882
1682879835380899000,5.933899169921875,1.5680910348892212,-1.0329731702804565,2.0060815811157227
1682879835397776000,5.95077587890625,-2.894584894180298,-0.3643811047077179,2.0190622806549072
1682879835414637600,5.967637451171875,-5.426315784454346,1.3344351053237915,0.8229882121086121
1682879835431514000,5.98451416015625,-5.82857084274292,2.548682451248169,-0.266642689704895
1682879835448389400,6.001389404296875,-5.984188556671143,2.110692024230957,-0.20616702735424042
1682879835465256700,6.018256591796875,-6.692181587219238,0.9460775256156921,1.3417655229568481
1682879835482131700,6.035131591796875,-7.363827705383301,-0.20693060755729675,3.3151657581329346
1682879835498996700,6.051996826171875,-8.06418514251709,-1.6397150754928589,4.55201530456543
1682879835515874600,6.06887451171875,-8.766984939575195,-3.2960760593414307,5.015509128570557
1682879835532740000,6.085739990234375,-9.35830307006836,-4.185343265533447,5.134016990661621
1682879835549614600,6.102614501953125,-9.917550086975098,-4.102418422698975,4.829805850982666
1682879835566485500,6.119485595703125,-10.186025619506836,-3.433826208114624,3.758195638656616
1682879835583355400,6.13635546875,-9.79354476928711,-2.9996538162231445,2.465604782104492
1682879835600226600,6.1532265625,-9.350972175598145,-2.7562239170074463,1.6801848411560059
1682879835617097700,6.17009765625,-9.46382999420166,-2.512946844100952,1.3962851762771606
1682879835633969200,6.18696923828125,-10.014678001403809,-2.747213840484619,1.278693675994873
1682879835650840300,6.20384033203125,-10.223287582397461,-3.157715082168579,1.2822061777114868
1682879835667711200,6.220711181640625,-10.063699722290039,-3.333338975906372,1.3513866662979126
1682879835684582400,6.23758251953125,-9.745438575744629,-3.093421697616577,1.0923798084259033
1682879835701444900,6.25444482421875,-9.294161796569824,-2.6723828315734863,0.6621779203414917
1682879835718327000,6.2713271484375,-8.873123168945312,-2.2340869903564453,0.34574973583221436
1682879835735205600,6.28820556640625,-8.799056053161621,-1.7696765661239624,0.30894508957862854
1682879835752067000,6.305067138671875,-8.912829399108887,-1.7321083545684814,0.531758189201355
1682879835768947700,6.32194775390625,-8.286081314086914,-2.0285308361053467,0.983951210975647
1682879835785798400,6.33879833984375,-7.272655963897705,-2.0118846893310547,0.7841982841491699
1682879835802680300,6.355680419921875,-5.563302516937256,-1.2386820316314697,-0.0607810914516449
1682879835819552000,6.372552001953125,-3.542407512664795,-0.323147714138031,-1.4259121417999268
1682879835836421400,6.38942138671875,-2.481792688369751,0.4158465266227722,-2.950937271118164
1682879835853293800,6.4062939453125,-1.7269160747528076,1.1522445678710938,-3.263242244720459
1682879835870164700,6.423164794921875,-0.36132678389549255,1.2548699378967285,-2.2017111778259277
1682879835887035600,6.44003564453125,1.7884607315063477,1.218676209449768,-0.822682797908783
1682879835903905300,6.4569052734375,4.025449275970459,1.7773123979568481,-0.07452555745840073
1682879835920779800,6.47377978515625,6.073986053466797,2.580142021179199,-0.1281289905309677
1682879835937638400,6.490638427734375,8.037154197692871,3.0166053771972656,-0.41752639412879944
1682879835954520000,6.50752001953125,9.583101272583008,2.7823383808135986,-0.43020185828208923
1682879835971389000,6.524388916015625,10.257190704345703,2.180636167526245,-0.17669276893138885
1682879835988254500,6.54125439453125,9.890824317932129,1.188132882118225,0.020616702735424042
1682879836005133800,6.5581337890625,9.250943183898926,0.9854783415794373,-0.2554943859577179
1682879836021994200,6.574994140625,8.228201866149902,1.686446189880371,-1.4688254594802856
1682879836038869500,6.591869384765625,7.1255903244018555,2.545780897140503,-2.8438830375671387
1682879836055736300,6.608736328125,6.76456880569458,2.364201307296753,-3.0726521015167236
1682879836072618000,6.625617919921875,6.723793983459473,0.7811439037322998,-1.581682801246643
1682879836089496000,6.64249609375,6.906136989593506,0.08628471940755844,0.2727513313293457
1682879836106360300,6.6593603515625,7.196450710296631,0.4144720733165741,1.0128145217895508
1682879836123231500,6.6762314453125,7.382917404174805,1.1911872625350952,0.5479460954666138
1682879836140101600,6.6931015625,7.33847713470459,2.1291708946228027,-0.3660610020160675
1682879836156974600,6.709974609375,7.188509464263916,2.3316726684570312,-0.6149885654449463
1682879836173843000,6.726843017578125,7.081608295440674,2.2201898097991943,-0.17088955640792847
1682879836190717700,6.7437177734375,7.057631492614746,2.2371411323547363,0.3504839241504669
1682879836207587300,6.76058740234375,7.09092378616333,2.367560863494873,0.6455318331718445
1682879836224458200,6.777458251953125,7.344127178192139,2.545780897140503,0.256868839263916
1682879836241326600,6.79432666015625,7.919715404510498,2.964987277984619,-1.2762502431869507
1682879836258203400,6.811203369140625,7.8265581130981445,3.134807825088501,-3.142749071121216
1682879836275071700,6.82807177734375,6.602231502532959,3.5920403003692627,-4.628220558166504
1682879836291942700,6.844942626953125,5.920047760009766,4.02208948135376,-6.168517112731934
1682879836308813800,6.861813720703125,6.169891834259033,3.498425245285034,-7.314958572387695
1682879836325674200,6.87867431640625,6.454707622528076,2.345417022705078,-6.718296051025391
1682879836342556200,6.89555615234375,6.571688175201416,0.2050980031490326,-3.1952834129333496
1682879836359427600,6.912427490234375,4.336074352264404,-1.2150110006332397,1.3403910398483276
1682879836376296700,6.929296630859375,-0.6183483600616455,-1.9869918823242188,3.0358476638793945
1682879836393169400,6.94616943359375,-4.568050384521484,-1.2961033582687378,1.556179165840149
1682879836410031400,6.96303125,-5.329340934753418,1.3185526132583618,-1.4818063974380493
1682879836426911500,6.979911376953125,-5.157993316650391,3.4972035884857178,-3.451083183288574
1682879836443773000,6.99677294921875,-5.719073295593262,3.386331558227539,-2.7762298583984375
1682879836460654000,7.013654052734375,-6.571382999420166,1.9011653661727905,0.06505715101957321
1682879836477525500,7.030525390625,-7.3516106605529785,-0.07009678333997726,3.104722499847412
1682879836494395000,7.047394775390625,-8.037306785583496,-1.683544635772705,5.017494201660156
1682879836511272000,7.06427197265625,-8.702539443969727,-2.6450464725494385,5.541158676147461
1682879836528135700,7.0811357421875,-9.33524227142334,-3.2901201248168945,5.100877285003662
1682879836545009700,7.098009765625,-9.81920051574707,-3.7145187854766846,4.315762996673584
1682879836561881000,7.114881103515625,-10.103405952453613,-3.894876718521118,3.7079520225524902
1682879836578752000,7.131751953125,-9.932973861694336,-3.8180603981018066,3.1111366748809814
1682879836595612400,7.1486123046875,-9.774760246276855,-3.5471417903900146,2.3906211853027344
1682879836612492000,7.165491943359375,-9.956645011901855,-3.464674949645996,1.7087428569793701
1682879836629368000,7.1823681640625,-10.27093505859375,-3.2342259883880615,1.144608736038208
1682879836646236400,7.199236328125,-10.273837089538574,-2.8544206619262695,0.8767443299293518
1682879836663105000,7.21610498046875,-9.928239822387695,-2.7351491451263428,0.9549350738525391
1682879836679981600,7.232981689453125,-9.582948684692383,-2.6836836338043213,1.141707181930542
1682879836696858600,7.249858642578125,-9.210015296936035,-2.5842654705047607,1.1606439352035522
1682879836713722600,7.26672265625,-8.884119033813477,-2.3134994506835938,1.0308351516723633
1682879836730585900,7.2835859375,-8.744382858276367,-2.032043218612671,0.8387179970741272
1682879836747463400,7.30046337890625,-8.58051872253418,-1.7324138879776,0.7199047207832336
1682879836764319000,7.317319091796875,-8.01684284210205,-1.8208365440368652,0.6641632318496704
1682879836781193200,7.334193115234375,-6.5168633460998535,-2.210263252258301,0.08475755155086517
1682879836798078700,7.35107861328125,-4.285983085632324,-1.603826642036438,-1.9665279388427734
1682879836814948000,7.367947998046875,-2.9439122676849365,0.26404649019241333,-4.498717308044434
1682879836831819300,7.3848193359375,-2.0538816452026367,1.0978775024414062,-5.351637840270996
1682879836848687600,7.4016875,-0.45295658707618713,0.41401392221450806,-3.851963520050049
1682879836865553400,7.418553466796875,1.9562959671020508,-0.03955352306365967,-1.6105462312698364
1682879836882429700,7.4354296875,4.44816780090332,0.30146199464797974,-0.17180584371089935
1682879836899306200,7.45230615234375,6.7262372970581055,1.1719449758529663,0.5502368807792664
1682879836916172300,7.46917236328125,8.394205093383789,1.8753563165664673,0.9393580555915833
1682879836933048800,7.486048828125,9.736733436584473,1.874592661857605,1.2684617042541504
1682879836949917200,7.502917236328125,10.562317848205566,1.626123309135437,1.4628695249557495
1682879836966788400,7.519788330078125,10.676855087280273,1.485318899154663,1.2738068103790283
1682879836983659300,7.5366591796875,9.417404174804688,1.6774359941482544,0.39538252353668213
1682879837000530400,7.553530517578125,7.4666056632995605,2.048689365386963,-0.9758572578430176
1682879837017415400,7.57041552734375,6.343988418579102,1.8347337245941162,-1.5419765710830688
1682879837034273000,7.58727294921875,6.312223434448242,1.479362964630127,-1.1284208297729492
1682879837051133200,7.60413330078125,6.732651233673096,1.443169116973877,-0.5606215596199036
1682879837068015000,7.62101513671875,7.0863423347473145,2.108248710632324,-0.5732970237731934
1682879837084871400,7.637871337890625,7.046330451965332,2.8984029293060303,-1.0010554790496826
1682879837101757400,7.65475732421875,6.5924577713012695,2.973539352416992,-1.1484266519546509
1682879837118615600,7.671615478515625,6.442032337188721,2.8128817081451416,-0.9213374853134155
1682879837135486500,7.688486572265625,6.745632171630859,2.627484083175659,-0.8475755453109741
1682879837152373500,7.70537353515625,7.388567924499512,2.643366575241089,-0.8494081497192383
1682879837169243400,7.722243408203125,7.911926746368408,3.098613977432251,-0.9428704977035522
1682879837186112000,7.739112060546875,8.165283203125,3.9238929748535156,-1.2759448289871216
1682879837202982100,7.755982177734375,8.112290382385254,3.821420192718506,-1.816102385520935
1682879837219857700,7.772857666015625,7.984161376953125,2.4240660667419434,-1.9501873254776
1682879837236726500,7.7897265625,8.030587196350098,2.1710150241851807,-2.2934935092926025
1682879837253597700,7.80659765625,8.286540031433105,3.6190712451934814,-4.304003715515137
1682879837270468900,7.82346875,7.8903937339782715,5.011232852935791,-7.96369743347168
1682879837287340000,7.840340087890625,6.76456880569458,4.7358856201171875,-10.58110237121582
1682879837304208600,7.857208740234375,6.832833290100098,2.448653221130371,-9.7587251663208
1682879837321088000,7.874087890625,7.444156646728516,-1.1212431192398071,-5.055367946624756
1682879837337956000,7.8909560546875,5.187314987182617,-1.3489432334899902,-0.3776674270629883
1682879837354824400,7.907824462890625,-0.4476115107536316,0.9169087409973145,1.4353805780410767
1682879837371686000,7.924685791015625,-3.955199718475342,2.2733349800109863,2.0118846893310547
1682879837388566800,7.94156689453125,-4.493677616119385,2.593275785446167,2.186286687850952
1682879837405430300,7.95843017578125,-4.851797103881836,3.017674207687378,1.904219627380371
1682879837422299100,7.975299072265625,-5.627595901489258,2.475836753845215,2.4193317890167236
1682879837439167500,7.99216748046875,-6.506783962249756,1.168585181236267,3.9289324283599854
1682879837456041000,8.009041015625,-7.5579304695129395,-0.3507893681526184,5.417916774749756
1682879837472912100,8.025912109375,-8.470562934875488,-1.7354681491851807,6.2783203125
1682879837489786600,8.04278662109375,-9.104793548583984,-3.1028900146484375,6.619793891906738
1682879837506655500,8.059655517578125,-9.773996353149414,-4.094934940338135,6.7042460441589355
1682879837523526000,8.07652587890625,-10.25474739074707,-4.229325294494629,6.099336624145508
1682879837540398600,8.093398681640625,-10.122953414916992,-3.696192979812622,4.797430038452148
1682879837557268500,8.1102685546875,-9.861350059509277,-3.4156529903411865,3.8460075855255127
1682879837574139400,8.127139404296875,-9.859975814819336,-3.5689802169799805,3.3597588539123535
1682879837591017000,8.144016845703124,-10.107987403869629,-3.5124752521514893,2.9266552925109863
1682879837607879400,8.16087939453125,-10.071488380432129,-3.3150129318237305,2.4584271907806396
1682879837624753000,8.1777529296875,-9.864252090454102,-3.249955892562866,2.0841195583343506
1682879837641623800,8.194623779296874,-9.438325881958008,-3.0167579650878906,2.0022635459899902
1682879837658502700,8.211502685546876,-8.984148025512695,-2.729804039001465,2.09694766998291
1682879837675364900,8.22836474609375,-8.728042602539062,-2.6789495944976807,2.1154263019561768
1682879837692238800,8.24523876953125,-8.874039649963379,-2.568077564239502,1.6850718259811401
1682879837709109500,8.262109619140626,-9.272171020507812,-2.062739133834839,1.3032809495925903
1682879837725979100,8.278979248046875,-9.073333740234375,-1.6427693367004395,1.2356276512145996
1682879837742863600,8.295863525390626,-8.093964576721191,-1.652695894241333,1.044274091720581
1682879837759722000,8.312721923828125,-6.098267555236816,-2.0392208099365234,-0.20555615425109863
1682879837776603400,8.329603271484375,-4.223217010498047,-1.2301298379898071,-2.72491717338562
1682879837793475600,8.3464755859375,-2.920088529586792,0.24572055041790009,-4.8003315925598145
1682879837810345200,8.36334521484375,-0.9674578309059143,0.6195700764656067,-4.690376281738281
1682879837827201300,8.380201171875,1.5010485649108887,0.25732699036598206,-2.811660051345825
1682879837844089600,8.397089599609375,3.729179620742798,0.4043927788734436,-0.9137017130851746
1682879837860957400,8.41395751953125,5.572160243988037,0.8370380997657776,0.02168571576476097
1682879837877831200,8.4308310546875,7.098254203796387,1.4088079929351807,0.21273382008075714
1682879837894700300,8.4477001953125,8.554099082946777,1.5279266834259033,0.2736676335334778
1682879837911575000,8.464574951171874,9.804692268371582,1.2246321439743042,0.7118107080459595
1682879837928430600,8.4814306640625,10.546282768249512,1.041372537612915,1.2877039909362793
1682879837945316900,8.49831689453125,10.550406455993652,1.5247195959091187,1.3187053203582764
1682879837962189000,8.51518896484375,9.614102363586426,2.0195205211639404,0.23777928948402405
1682879837979057000,8.532056884765625,8.352818489074707,2.229963541030884,-1.6988162994384766
1682879837995927600,8.548927490234375,7.721489429473877,1.9709566831588745,-2.7539331912994385
1682879838012800300,8.56580029296875,7.779674530029297,1.2092077732086182,-2.001805305480957
1682879838029660000,8.582659912109374,7.721642017364502,1.0852020978927612,-0.5279402732849121
1682879838046540300,8.599540283203124,7.290524005889893,1.5549575090408325,-0.004581489134579897
1682879838063415600,8.61641552734375,6.976844787597656,2.147038698196411,-0.4879286289215088
1682879838080283600,8.63328369140625,6.8406219482421875,2.411848783493042,-1.1104003190994263
1682879838097155300,8.6501552734375,6.8858256340026855,2.2270619869232178,-1.2837333679199219
1682879838114012200,8.66701220703125,7.307780742645264,1.6989690065383911,-0.9743300676345825
1682879838130899700,8.683899658203124,7.636120796203613,1.4456125497817993,-0.3761402666568756
1682879838147766000,8.70076611328125,7.660250186920166,1.5699236392974854,0.08139779418706894
1682879838164636200,8.71763623046875,7.509213924407959,1.9830212593078613,0.3147483170032501
1682879838181511200,8.73451123046875,7.840760707855225,2.425898551940918,-0.024587325751781464
1682879838198385000,8.751385009765626,8.491026878356934,2.6369526386260986,-1.2684617042541504
1682879838215260000,8.768260009765624,8.689863204956055,3.1975741386413574,-3.40832257270813
1682879838232121900,8.785121826171874,8.070140838623047,4.2671990394592285,-6.1874542236328125
1682879838248998100,8.801998046875,7.039153099060059,4.583322048187256,-8.558985710144043
1682879838265866800,8.81886669921875,6.713256359100342,3.0889928340911865,-8.166962623596191
1682879838282737700,8.835737548828124,7.003875255584717,0.01710422709584236,-3.7566685676574707
1682879838299608800,8.85260888671875,5.5622334480285645,-2.21698260307312,0.8852964639663696
1682879838316480000,8.86947998046875,2.3568708896636963,-2.2704334259033203,2.8605291843414307
1682879838333351400,8.886351318359376,-1.7614299058914185,-0.22602014243602753,2.118786096572876
1682879838350222600,8.90322265625,-4.098600387573242,1.8813122510910034,0.5032002329826355
1682879838367093800,8.92009375,-4.841565132141113,3.0697505474090576,-0.9526443481445312
1682879838383965000,8.93696484375,-5.346139907836914,3.54866886138916,-1.54945969581604
1682879838400835600,8.953835693359375,-5.86476469039917,3.2728631496429443,-0.7684684991836548
1682879838417707000,8.97070703125,-6.430883884429932,2.344959020614624,1.102611780166626
1682879838434571800,8.98757177734375,-7.093520164489746,0.8999572396278381,3.04546856880188
1682879838451446800,9.00444677734375,-7.679034233093262,-0.7373143434524536,4.733747482299805
1682879838468312600,9.0213125,-8.465065002441406,-2.308612585067749,5.903860092163086
1682879838485189400,9.038189453125,-9.475131034851074,-3.238044023513794,6.022214889526367
1682879838502065700,9.055065673828125,-10.122036933898926,-3.464064121246338,5.312236785888672
1682879838518937000,9.07193701171875,-10.127229690551758,-3.4574973583221436,4.457483768463135
1682879838535791400,9.088791259765625,-9.945497512817383,-3.3090569972991943,3.66534423828125
1682879838552674300,9.10567431640625,-10.231992721557617,-2.975524663925171,3.0161471366882324
1682879838569549800,9.1225498046875,-10.61760139465332,-2.8461740016937256,2.3971879482269287
1682879838586418700,9.139418701171875,-10.7022066116333,-3.0408871173858643,2.0983221530914307
1682879838603289900,9.156289794921875,-10.529178619384766,-3.079219102859497,1.891544222831726
1682879838620161000,9.1731611328125,-10.217331886291504,-2.9458975791931152,1.4306464195251465
1682879838637032000,9.190031982421875,-9.703441619873047,-2.654820442199707,1.007622241973877
1682879838653898800,9.206898681640626,-9.285457611083984,-2.0972530841827393,0.9390525817871094
1682879838670779000,9.22377880859375,-9.062491416931152,-1.7539467811584473,1.1285735368728638
1682879838687647500,9.2406474609375,-8.968875885009766,-1.6711746454238892,1.3046554327011108
1682879838704514800,9.257514892578126,-8.70162296295166,-1.9062049388885498,1.457371711730957
1682879838721385500,9.274385498046875,-8.106029510498047,-1.898416519165039,1.6896532773971558
1682879838738261500,9.291261474609374,-7.2821245193481445,-1.6927075386047363,1.476919412612915
1682879838755128300,9.30812841796875,-5.885228633880615,-1.7457001209259033,-0.04184427112340927
1682879838772001300,9.325001220703125,-4.229020118713379,-1.1281154155731201,-2.981786012649536
1682879838788872700,9.341872802734375,-3.3269248008728027,0.4668537676334381,-5.416083812713623
1682879838805734700,9.358734619140625,-2.080148935317993,0.8825475573539734,-5.322774410247803
1682879838822613500,9.375613525390625,0.3543018400669098,0.19486601650714874,-2.7096455097198486
1682879838839486000,9.39248583984375,3.1926872730255127,0.7053966522216797,-0.08170322328805923
1682879838856347600,9.40934765625,5.652183532714844,1.662469744682312,0.9250026941299438
1682879838873228300,9.426228271484375,7.422928810119629,2.3553435802459717,0.6763805150985718
1682879838890108000,9.44310791015625,9.027976989746094,2.7143797874450684,0.13118331134319305
1682879838906970600,9.459970703125,10.464274406433105,2.640617847442627,-0.18555031716823578
1682879838923844000,9.476843994140625,10.926547050476074,2.077247381210327,-0.1215621829032898
1682879838940711200,9.493711181640625,9.934959411621094,1.798081874847412,-0.28359419107437134
1682879838957574000,9.510573974609375,8.444601058959961,1.9058995246887207,-1.506240963935852
1682879838974455300,9.527455322265626,7.6697187423706055,1.7751743793487549,-3.578295946121216
1682879838991314400,9.544314453125,7.636120796203613,1.507768154144287,-4.7360382080078125
1682879839008199200,9.56119921875,7.933764934539795,1.0326677560806274,-4.024075031280518
1682879839025068800,9.57806884765625,8.194757461547852,0.8483390808105469,-2.5830435752868652
1682879839041940200,9.594940185546875,7.636884689331055,1.021519422531128,-1.8095356225967407
1682879839058801000,9.61180078125,6.79434871673584,0.4404338300228119,-1.159727692604065
1682879839075671800,9.628671875,6.677520751953125,-0.31261029839515686,-0.032681290060281754
1682879839092553500,9.645553466796875,7.2399749755859375,-0.24068090319633484,0.5855143666267395
1682879839109424600,9.662424560546874,7.922922134399414,0.745408296585083,0.45753806829452515
1682879839126295800,9.6792958984375,8.3796968460083,1.8591684103012085,-0.25732699036598206
1682879839143167500,9.69616748046875,8.413905143737793,2.828153371810913,-1.0352638959884644
1682879839160038100,9.7130380859375,8.149858474731445,2.9294042587280273,-1.5667166709899902
1682879839176909600,9.72990966796875,8.227591514587402,2.0890064239501953,-1.779603123664856
1682879839193780500,9.746780517578125,8.573187828063965,1.8339701890945435,-2.16964054107666
1682879839210651400,9.7636513671875,8.481711387634277,3.0947959423065186,-3.9321396350860596
1682879839227522600,9.7805224609375,7.410711765289307,4.616003036499023,-7.03243350982666
1682879839244400600,9.797400634765625,6.3021440505981445,4.201378345489502,-9.190620422363281
1682879839261268500,9.8142685546875,6.37300443649292,2.1306979656219482,-8.431314468383789
1682879839278133000,9.831133056640626,6.709438323974609,-0.6568328738212585,-4.713283538818359
1682879839295007700,9.8480078125,4.861876487731934,-2.250274896621704,-1.3933836221694946
1682879839311878700,9.864878662109374,0.9628763198852539,-1.093143343925476,-0.19456058740615845
1682879839328749600,9.88174951171875,-2.267226457595825,1.8645133972167969,0.2629774808883667
1682879839345611000,9.898611083984376,-3.2922582626342773,3.346930742263794,0.7683157324790955
1682879839362492200,9.9154921875,-3.601050615310669,3.1447343826293945,1.26067316532135
1682879839379363800,9.93236376953125,-4.311639785766602,2.554180383682251,1.6893478631973267
1682879839396234200,9.949234130859375,-5.121494293212891,1.8907806873321533,2.401158571243286
1682879839413107000,9.96610693359375,-5.825211048126221,1.2515101432800293,3.4190127849578857
1682879839429973000,9.982972900390624,-6.5112128257751465,0.6589708924293518,4.457942008972168
1682879839446850800,9.999850830078126,-7.289149761199951,-0.2483167201280594,5.277112007141113
1682879839463719200,10.01671923828125,-8.27004623413086,-1.4231632947921753,5.911953926086426
1682879839480590600,10.033590576171875,-9.179014205932617,-2.5085182189941406,6.023742198944092
1682879839497461800,10.050461669921875,-9.626014709472656,-3.2235360145568848,5.748852729797363
1682879839514333000,10.0673330078125,-9.873414993286133,-3.2792773246765137,5.260313510894775
1682879839531204000,10.0842041015625,-9.760251998901367,-3.1754302978515625,4.49856424331665
1682879839548078300,10.101078369140625,-9.403048515319824,-3.1001410484313965,3.7501018047332764
1682879839564943400,10.117943359375,-9.338144302368164,-3.1271719932556152,3.1581733226776123
1682879839581817300,10.1348173828125,-9.667859077453613,-3.4408512115478516,2.629774808883667
1682879839598688800,10.151688720703126,-9.71306324005127,-3.1726813316345215,2.1868975162506104
1682879839615549200,10.168549072265625,-9.589056968688965,-2.6959011554718018,1.986533761024475
1682879839632431000,10.18543115234375,-9.418320655822754,-2.629469394683838,1.9740110635757446
1682879839649301200,10.20230126953125,-9.06814193725586,-2.5280659198760986,1.9576704502105713
1682879839666175000,10.219175048828125,-8.643284797668457,-2.671313762664795,1.9100228548049927
1682879839683045600,10.236045654296875,-8.52004337310791,-2.5731170177459717,1.734704613685608
1682879839699913500,10.25291357421875,-8.638092994689941,-2.020895004272461,1.369254469871521
1682879839716787000,10.269786865234375,-8.433452606201172,-1.4280502796173096,1.0487029552459717
1682879839733658000,10.286658203125,-7.320761680603027,-1.6090190410614014,1.0297660827636719
1682879839750518800,10.303518798828126,-5.550474166870117,-2.124436616897583,0.4749477207660675
1682879839767401000,10.32040087890625,-3.5837936401367188,-1.5972598791122437,-1.7397441864013672
1682879839784259600,10.337259521484375,-2.936734676361084,0.531147301197052,-4.722141265869141
1682879839801143600,10.3541435546875,-2.713463306427002,1.6206254959106445,-5.763360977172852
1682879839818013700,10.371013671875,-1.1030699014663696,0.24297164380550385,-3.8959457874298096
1682879839834884900,10.387884765625,1.7092009782791138,-0.5584835410118103,-1.450346827507019
1682879839851753500,10.40475341796875,4.534910678863525,0.24755313992500305,-0.20952677726745605
1682879839868630000,10.421630126953126,7.191105842590332,1.235169529914856,0.07040221989154816
1682879839885498400,10.438498291015625,9.421985626220703,1.6812539100646973,0.03191770985722542
1682879839902369800,10.455369873046875,11.038946151733398,1.8196148872375488,-0.023976460099220276
1682879839919238100,10.472238037109374,11.780383110046387,1.5931365489959717,-0.11301007121801376
1682879839936104000,10.48910400390625,11.001683235168457,1.4256067276000977,-0.38011088967323303
1682879839952983300,10.5059833984375,9.015454292297363,1.4958562850952148,-1.1410962343215942
1682879839969854700,10.522854736328124,7.48416805267334,1.368949055671692,-2.012037515640259
1682879839986724000,10.53972412109375,7.116580009460449,1.102611780166626,-2.079385280609131
1682879840003597300,10.556597412109374,7.36107873916626,0.726471483707428,-1.4543174505233765
1682879840020468000,10.573468017578126,7.752643585205078,0.3605632185935974,-0.5644394755363464
1682879840037321200,10.5903212890625,7.9129958152771,0.619111955165863,-0.19333885610103607
1682879840054210000,10.6072099609375,7.292662143707275,0.9984592199325562,-0.20082195103168488
1682879840071079200,10.6240791015625,6.856657028198242,1.2618948221206665,-0.2848159074783325
1682879840087944400,10.6409443359375,7.159951686859131,1.5380059480667114,-0.5580254197120667
1682879840104815400,10.6578154296875,7.858781337738037,1.7774651050567627,-0.9028588533401489
1682879840121692200,10.674692138671874,8.215068817138672,1.9281961917877197,-1.007927656173706
1682879840138566100,10.691566162109375,8.127562522888184,2.288759469985962,-0.8817839622497559
1682879840155426800,10.7084267578125,8.106182098388672,2.5421156883239746,-0.9753990769386292
1682879840172308500,10.72530859375,8.291274070739746,2.523789644241333,-1.475545048713684
1682879840189163300,10.742163330078125,8.183303833007812,2.8658742904663086,-2.2003366947174072
1682879840206051000,10.759051025390624,7.722100257873535,4.017508029937744,-3.863417148590088
1682879840222919200,10.775919189453125,6.932557106018066,4.677089691162109,-6.116899013519287
1682879840239793200,10.792793212890626,6.417444705963135,3.726430654525757,-7.418042182922363
1682879840256664800,10.809664794921876,6.365674018859863,1.8038851022720337,-6.80244255065918
1682879840273536000,10.826535888671875,6.738607406616211,-0.9836457371711731,-3.358995199203491
1682879840290406700,10.84340673828125,4.9623637199401855,-2.057241439819336,0.5363397002220154
1682879840307265300,10.860265380859374,0.2483167201280594,-0.7961101531982422,2.0424280166625977
1682879840324141800,10.877141845703125,-2.899777412414551,0.8611672520637512,2.1899518966674805
1682879840341019100,10.89401904296875,-4.064086437225342,1.4773776531219482,2.0972530841827393
1682879840357895000,10.91089501953125,-4.851033687591553,1.3092368841171265,1.7789922952651978
1682879840374763000,10.927762939453125,-5.59491491317749,0.726471483707428,1.8854355812072754
1682879840391634000,10.944634033203124,-6.178443908691406,0.01237002108246088,2.486679792404175
1682879840408504800,10.9615048828125,-6.702566146850586,-0.5725334286689758,3.301879405975342
1682879840425376300,10.978376220703124,-7.260286331176758,-1.0548115968704224,4.058435916900635
1682879840442247400,10.995247314453126,-7.993019104003906,-2.0667097568511963,4.671591758728027
1682879840459119000,11.012119140625,-8.917410850524902,-3.5083518028259277,5.022533893585205
1682879840475989000,11.028989013671875,-9.543852806091309,-4.508949279785156,4.927544593811035
1682879840492855300,11.045855224609374,-9.518959999084473,-4.63753604888916,4.415945053100586
1682879840509735000,11.06273486328125,-8.994990348815918,-4.149149417877197,3.5378260612487793
1682879840526603300,11.079603271484375,-8.663901329040527,-3.3687691688537598,2.5089762210845947
1682879840543474400,11.096474365234375,-8.90687370300293,-2.612517833709717,1.6007723808288574
1682879840560347400,11.113347412109375,-9.433439254760742,-2.104888916015625,1.0700831413269043
1682879840577215700,11.1302158203125,-9.638384819030762,-2.1713204383850098,1.1892019510269165
1682879840594088200,11.147088134765625,-9.452528953552246,-2.5579981803894043,1.9124664068222046
1682879840610959400,11.16395947265625,-9.434508323669434,-2.7760770320892334,2.3438899517059326
1682879840627830500,11.18083056640625,-9.46780014038086,-2.754696846008301,1.968207836151123
1682879840644701400,11.197701416015626,-9.350972175598145,-2.5166120529174805,1.3449726104736328
1682879840661572000,11.214572021484376,-9.175195693969727,-2.3933699131011963,1.1021536588668823
1682879840678445300,11.2314453125,-9.14113998413086,-2.063350200653076,1.124755620956421
1682879840695320800,11.24832080078125,-9.144652366638184,-1.6954565048217773,1.1032226085662842
1682879840712185300,11.265185302734375,-8.644506454467773,-1.3868168592453003,0.8222246170043945
1682879840729059000,11.28205908203125,-6.970888614654541,-1.4291192293167114,0.04489859566092491
1682879840745916200,11.298916259765624,-4.803691387176514,-1.224173903465271,-1.4008667469024658
1682879840762805200,11.31580517578125,-2.9546024799346924,0.03436116874217987,-3.1560351848602295
1682879840779668500,11.33266845703125,-1.6455183029174805,0.7586946487426758,-3.8817431926727295
1682879840796542200,11.349542236328125,-0.27718010544776917,0.4242459237575531,-2.81181263923645
1682879840813413600,11.36641357421875,1.7595973014831543,0.1417207419872284,-0.9266825914382935
1682879840830284800,11.383284912109374,4.047440528869629,0.5012149214744568,0.23029619455337524
1682879840847155700,11.40015576171875,6.086355686187744,1.1847730875015259,0.3908010423183441
1682879840864018400,11.417018310546876,7.806858062744141,1.4711161851882935,0.3225368559360504
1682879840880898000,11.43389794921875,9.332188606262207,1.2235630750656128,0.6623306274414062
1682879840897769700,11.450769775390626,10.352791786193848,1.0705413818359375,1.1632401943206787
1682879840914641200,11.46764111328125,10.62569522857666,1.0227410793304443,1.306793451309204
1682879840931499800,11.484499755859375,10.52933120727539,1.379333734512329,0.7648032903671265
1682879840948383000,11.501383056640625,9.907928466796875,2.406198263168335,-0.5789475440979004
1682879840965246500,11.51824658203125,9.04477596282959,3.1219794750213623,-2.7085764408111572
1682879840982115300,11.535115234375,8.050440788269043,3.13205885887146,-4.031404972076416
1682879840998990600,11.551990478515625,7.522652626037598,2.2762365341186523,-3.5882225036621094
1682879841015859700,11.568859619140625,7.293272972106934,1.0245736837387085,-1.8515325784683228
1682879841032727300,11.585727294921876,7.004180908203125,0.3006984293460846,-0.13927727937698364
1682879841049603800,11.602603759765625,6.4724225997924805,0.11362093687057495,0.8982773423194885
1682879841066471700,11.6194716796875,6.2966461181640625,0.6957755088806152,0.9906707406044006
1682879841083344400,11.636344482421874,6.5144195556640625,1.478141188621521,0.41141775250434875
1682879841100214000,11.653214111328126,6.9078168869018555,2.3354904651641846,-0.18845193088054657
1682879841117083400,11.67008349609375,7.441865921020508,2.8686232566833496,-0.5455026626586914
1682879841133955800,11.686955810546875,7.827474594116211,2.850144624710083,-0.521984338760376
1682879841150828000,11.703828125,7.6814775466918945,2.6670377254486084,-0.6032294034957886
1682879841167700500,11.720700439453125,7.605119705200195,2.9069550037384033,-1.1737775802612305
1682879841184573200,11.7375732421875,8.128936767578125,3.508962631225586,-2.028836250305176
1682879841201441300,11.754441162109375,8.42398452758789,4.186259746551514,-3.2262847423553467
1682879841218312400,11.7713125,7.825489044189453,4.578129768371582,-4.914105415344238
1682879841235195400,11.7881953125,7.031211853027344,3.520874500274658,-5.642867565155029
1682879841252064500,11.805064453125,6.819546699523926,1.0821478366851807,-4.0185770988464355
1682879841268935400,11.821935302734374,6.14881706237793,-1.7353154420852661,-0.6079636216163635
1682879841285806800,11.838806884765624,3.819282293319702,-2.2458460330963135,1.9628627300262451
1682879841302678300,11.85567822265625,1.0175487995147705,-0.7953465580940247,1.8055649995803833
1682879841319549000,11.872548828125,-1.9607247114181519,0.8979719281196594,0.13927727937698364
1682879841336420000,11.889420166015626,-3.738495349884033,1.9851592779159546,-1.1119275093078613
1682879841353282300,11.9062822265625,-4.7389397621154785,2.765997886657715,-1.3442089557647705
1682879841370163500,11.92316357421875,-5.3977580070495605,2.7423267364501953,-0.6473644375801086
1682879841387034000,11.9400341796875,-5.994878768920898,2.0358612537384033,0.7137960195541382
1682879841403905300,11.9569052734375,-6.69325065612793,0.6446155309677124,2.4526238441467285
1682879841420766000,11.973765869140625,-7.413460731506348,-0.8575021028518677,3.9735257625579834
1682879841437647400,11.9906474609375,-8.232172966003418,-2.1655173301696777,4.687016487121582
1682879841454518500,12.0075185546875,-8.853269577026367,-3.765678882598877,4.897001266479492
1682879841471387100,12.02438720703125,-9.107848167419434,-4.914258003234863,4.860044002532959
1682879841488263700,12.041263671875,-9.304393768310547,-5.1630330085754395,4.301712989807129
1682879841505132500,12.058132568359374,-9.495136260986328,-4.582711219787598,3.218496322631836
1682879841522003500,12.07500341796875,-9.562332153320312,-3.6671767234802246,2.046704053878784
1682879841538875000,12.091875,-9.413280487060547,-2.7003297805786133,1.3561208248138428
1682879841555732500,12.108732421875,-9.6930570602417,-2.359161615371704,1.2473868131637573
1682879841572619800,12.125619873046874,-10.186941146850586,-2.831360340118408,1.350928544998169
1682879841589488400,12.14248828125,-10.579116821289062,-3.0108020305633545,1.3466523885726929
1682879841606359600,12.159359619140625,-10.587058067321777,-2.629469394683838,1.0462594032287598
1682879841623230500,12.17623046875,-10.330647468566895,-2.2789855003356934,0.7594582438468933
1682879841640097300,12.19309716796875,-9.876774787902832,-2.030057907104492,0.6255260109901428
1682879841656977700,12.209977783203126,-9.47497844696045,-1.867262363433838,0.7301366925239563
1682879841673844200,12.22684423828125,-9.511324882507324,-1.4756977558135986,1.0151053667068481
1682879841690715100,12.243715087890624,-9.24575138092041,-1.4692835807800293,1.3261884450912476
1682879841707586600,12.260586669921874,-8.554556846618652,-2.046704053878784,1.744783878326416
1682879841724457700,12.277457763671874,-7.117649078369141,-2.238821029663086,1.4566081762313843
1682879841741326600,12.29432666015625,-4.641812324523926,-1.0355693101882935,-0.0806342139840126
1682879841758203000,12.311202880859375,-2.545475482940674,0.6203336715698242,-2.4523184299468994
1682879841775071500,12.328071533203126,-1.7351627349853516,1.4685200452804565,-3.4652857780456543
1682879841791941400,12.34494140625,-0.4317290186882019,0.9553932547569275,-1.9619464874267578
1682879841808814600,12.361814697265626,1.9937114715576172,0.1918116807937622,0.3727805018424988
1682879841825674500,12.378674560546875,4.550946235656738,0.4792237877845764,1.5256359577178955
1682879841842556200,12.39555615234375,6.880480766296387,1.2276864051818848,1.4581353664398193
1682879841859416600,12.41241650390625,8.802109718322754,2.072054862976074,1.1290316581726074
1682879841876296200,12.429296142578124,9.962295532226562,2.331061840057373,1.228297233581543
1682879841893170000,12.446169921875,9.914342880249023,2.386803150177002,1.409724235534668
1682879841910041300,12.463041259765625,9.623265266418457,2.255314588546753,1.1571314334869385
1682879841926914000,12.4799140625,9.337075233459473,2.6455047130584717,0.5251913666725159
1682879841943780600,12.496780517578125,8.65015697479248,2.955824136734009,-0.5920811295509338
1682879841960657000,12.513656982421875,8.522486686706543,3.2094860076904297,-1.7411186695098877
1682879841977529900,12.53052978515625,8.563414573669434,3.425732374191284,-2.286621332168579
1682879841994394000,12.54739404296875,8.136419296264648,2.450944185256958,-1.3350459337234497
1682879842011273700,12.564273681640625,7.118718147277832,1.5357152223587036,0.6107125282287598
1682879842028136400,12.581136474609375,6.068946361541748,1.5347989797592163,1.474017858505249
1682879842045008000,12.5980078125,5.638438701629639,2.121535062789917,0.9746354818344116
1682879842061884200,12.61488427734375,6.093686103820801,2.9831604957580566,-0.1817324161529541
1682879842078752800,12.631752685546875,6.855740547180176,3.6955819129943848,-1.2289081811904907
1682879842095615200,12.648615234375,7.263034820556641,3.894571304321289,-1.3220651149749756
1682879842112495600,12.66549560546875,7.133378982543945,3.5297319889068604,-0.6498079299926758
1682879842129366500,12.682366455078125,6.78014612197876,3.221092462539673,-0.09697485715150833
1682879842146238000,12.699238037109374,6.7598347663879395,3.5581374168395996,-0.4384485185146332
1682879842163108900,12.71610888671875,7.428121566772461,4.169460773468018,-1.328937292098999
1682879842179980000,12.73297998046875,8.518974304199219,4.688543319702148,-2.598926067352295
1682879842196848000,12.74984814453125,8.390539169311523,5.430286407470703,-4.595997333526611
1682879842213722600,12.76672265625,6.920186996459961,5.511073589324951,-6.283665180206299
1682879842230583300,12.783583251953125,5.844605922698975,4.435798168182373,-6.956075191497803
1682879842247465000,12.80046484375,6.074902057647705,2.6035077571868896,-5.633857250213623
1682879842264336000,12.8173359375,6.058256149291992,0.14508049190044403,-2.1484131813049316
1682879842281203200,12.834203125,5.008331298828125,-1.749212622642517,1.5308283567428589
1682879842298082300,12.851082275390626,2.2235496044158936,-0.5523748993873596,2.4918720722198486
1682879842314950100,12.8679501953125,-1.3319916725158691,1.3773484230041504,1.5581644773483276
1682879842331820800,12.88482080078125,-3.5265250205993652,2.0610592365264893,0.6759223937988281
1682879842348692200,12.901692138671875,-4.775897026062012,2.4828617572784424,0.19685132801532745
1682879842365553000,12.918552978515624,-5.577046871185303,2.9691104888916016,0.10293079167604446
1682879842382434600,12.9354345703125,-6.019160747528076,3.023477554321289,0.9764680862426758
1682879842399305500,12.952305419921874,-6.4330220222473145,2.2485949993133545,2.598620653152466
1682879842416177200,12.96917724609375,-7.11123514175415,0.22342395782470703,4.351803779602051
1682879842433048000,12.986048095703126,-7.922006130218506,-2.640617847442627,5.884770393371582
1682879842449919500,13.00291943359375,-8.75843334197998,-4.883562088012695,6.879411697387695
1682879842466790700,13.019790771484375,-9.636399269104004,-5.641798496246338,6.661943435668945
1682879842483662300,13.036662353515625,-9.908844947814941,-5.4815993309021,5.286580562591553
1682879842500532700,13.05353271484375,-9.688016891479492,-4.793001651763916,3.6757287979125977
1682879842517404200,13.070404052734375,-9.643729209899902,-3.737579107284546,2.4976751804351807
1682879842534275800,13.08727587890625,-10.027047157287598,-2.9750664234161377,1.8327484130859375
1682879842551146500,13.104146484375,-10.465801239013672,-2.590373992919922,1.7241671085357666
1682879842568018000,13.121017822265625,-10.66937255859375,-2.6846001148223877,2.0454821586608887
1682879842584889300,13.137889404296875,-10.602330207824707,-2.768899440765381,2.2351558208465576
1682879842601760000,13.154760009765624,-10.491915702819824,-2.426356792449951,2.0282254219055176
1682879842618631200,13.171631103515624,-10.213666915893555,-2.054645299911499,1.772578239440918
1682879842635498000,13.188498046875,-9.77430248260498,-2.027308940887451,1.9480493068695068
1682879842652371000,13.205370849609375,-9.518502235412598,-2.4859161376953125,2.6170995235443115
1682879842669247700,13.222247802734374,-9.841038703918457,-2.6763534545898438,3.3623549938201904
1682879842686116000,13.2391162109375,-9.506590843200684,-3.6664133071899414,3.7924041748046875
1682879842702976800,13.255976806640625,-7.425983428955078,-3.880368709564209,2.8099801540374756
1682879842719858700,13.272858642578125,-4.391968250274658,-2.63191294670105,0.38377609848976135
1682879842736729600,13.2897294921875,-1.4411838054656982,-0.5210680365562439,-2.4223861694335938
1682879842753590800,13.3065908203125,-0.31230485439300537,1.2626584768295288,-4.431521892547607
1682879842770472400,13.323472412109375,-0.06062837690114975,1.5285375118255615,-3.763388156890869
1682879842787341000,13.340341064453124,1.1064296960830688,0.4948008358478546,-1.3353514671325684
1682879842804217300,13.35721728515625,3.137709379196167,0.28787025809288025,0.28848111629486084
1682879842821083100,13.374083251953126,5.243514537811279,1.3322970867156982,0.35873061418533325
1682879842837959700,13.390959716796875,7.228368282318115,2.3684773445129395,-0.14706580340862274
1682879842854828000,13.407828125,9.138696670532227,2.6708555221557617,-0.3536909818649292
1682879842871699500,13.424699462890626,10.851716041564941,2.76615047454834,-0.2177734673023224
1682879842888573700,13.44157373046875,11.804818153381348,2.579531192779541,0.04337143152952194
1682879842905451300,13.458451171875,11.291996955871582,2.439643144607544,0.1739438772201538
1682879842922315300,13.475315185546876,9.18145751953125,2.8351783752441406,-0.5653557777404785
1682879842939182300,13.492182373046875,7.367340087890625,2.8287642002105713,-2.0499110221862793
1682879842956045000,13.509045166015625,7.3404622077941895,2.7087292671203613,-3.050966501235962
1682879842972926700,13.5259267578125,7.868097305297852,2.490039348602295,-2.846784830093384
1682879842989797600,13.542797607421875,7.904443740844727,1.9074267148971558,-1.8443548679351807
1682879843006669000,13.5596689453125,7.518224239349365,1.6311628818511963,-1.3359622955322266
1682879843023540500,13.57654052734375,7.1255903244018555,1.638798713684082,-1.1607966423034668
1682879843040411400,13.593411376953124,6.894377708435059,1.3825408220291138,-0.9108000993728638
1682879843057282600,13.610282470703124,6.853755474090576,1.0196868181228638,-0.6409503817558289
1682879843074153700,13.62715380859375,7.132004261016846,0.8449793457984924,-0.44516804814338684
1682879843091010000,13.644010009765625,7.330535888671875,1.2640329599380493,-0.33246341347694397
1682879843107900400,13.660900390625,7.3097662925720215,1.938580870628357,-0.3500257730484009
1682879843124767700,13.677767822265626,7.058242321014404,2.4462099075317383,-0.7203628420829773
1682879843141639200,13.69463916015625,6.688821792602539,2.6056456565856934,-1.4749341011047363
1682879843158509800,13.711509765625,6.645755767822266,3.2178854942321777,-2.6778805255889893
1682879843175381000,13.728381103515625,6.741050720214844,4.5630106925964355,-4.511240005493164
1682879843192252400,13.74525244140625,6.373615264892578,5.08866024017334,-5.980523586273193
1682879843209123300,13.762123291015625,6.208528995513916,3.1984903812408447,-5.2357258796691895
1682879843226009300,13.77900927734375,5.806732177734375,-0.08704829961061478,-2.4865269660949707
1682879843242863900,13.79586376953125,4.578434944152832,-1.7114917039871216,0.44058656692504883
1682879843259737000,13.812737060546874,1.8238909244537354,-0.7820602059364319,1.8646661043167114
1682879843276608800,13.82960888671875,-1.704466700553894,1.342529058456421,1.5865697860717773
1682879843293479700,13.846479736328124,-4.293313503265381,3.0524935722351074,0.4714352488517761
1682879843310350800,13.863350830078126,-5.265964031219482,3.8654024600982666,-0.13209961354732513
1682879843327214300,13.88021435546875,-5.369505405426025,3.3925929069519043,0.1817324161529541
1682879843344091000,13.8970908203125,-5.475643157958984,1.979050636291504,1.386358618736267
1682879843360964600,13.913964599609375,-5.82857084274292,0.05009094998240471,3.271488904953003
1682879843377833500,13.93083349609375,-6.408587455749512,-1.867567777633667,4.947397708892822
1682879843394709500,13.94770947265625,-7.339545726776123,-3.554319381713867,5.786726474761963
1682879843411575300,13.9645751953125,-8.211402893066406,-4.788877964019775,5.885992050170898
1682879843428451800,13.981451904296875,-8.944289207458496,-5.5342864990234375,5.507102966308594
1682879843445320400,13.998320556640625,-9.42015266418457,-5.746103763580322,4.720613956451416
1682879843462181000,14.01518115234375,-9.429162979125977,-5.412877082824707,3.8340957164764404
1682879843479063000,14.03206298828125,-9.150761604309082,-4.47962760925293,2.886949062347412
1682879843495921200,14.048921142578125,-9.070585250854492,-3.9096903800964355,2.0057759284973145
1682879843512797200,14.065797119140624,-9.386096954345703,-3.8008036613464355,1.3658946752548218
1682879843529679000,14.08267919921875,-9.457874298095703,-3.6273179054260254,1.0115928649902344
1682879843546548000,14.0995478515625,-9.139307975769043,-2.9049696922302246,1.0325149297714233
1682879843563419000,14.1164189453125,-8.737510681152344,-2.3136520385742188,1.2768610715866089
1682879843580290300,14.133290283203126,-8.595484733581543,-2.404060125350952,1.762804388999939
1682879843597161500,14.150161376953125,-8.671079635620117,-2.806162118911743,2.171778678894043
1682879843614033000,14.167032958984375,-8.864724159240723,-2.866485118865967,2.2004892826080322
1682879843630904300,14.183904296875,-8.698415756225586,-2.771953821182251,1.9436204433441162
1682879843647777000,14.200777099609375,-8.343960762023926,-2.515848398208618,1.5567901134490967
1682879843664644000,14.21764404296875,-7.828696250915527,-2.20278000831604,1.1618657112121582
1682879843681514800,14.2345146484375,-7.021132469177246,-2.6372580528259277,0.6777549982070923
1682879843698391600,14.2513916015625,-5.603161334991455,-2.9630019664764404,-0.531147301197052
1682879843715259600,14.268259765625,-3.7337610721588135,-1.8248071670532227,-3.1757357120513916
1682879843732131300,14.28513134765625,-2.0315849781036377,0.5343543887138367,-5.095227241516113
1682879843749002200,14.302002197265624,-0.6001750826835632,1.2362385988235474,-4.008803367614746
1682879843765873700,14.318873779296876,1.4813482761383057,0.14126259088516235,-0.8090910315513611
1682879843782744800,14.335744873046876,3.855475902557373,0.07040221989154816,1.160033106803894
1682879843799615500,14.352615478515625,5.8583502769470215,0.9502009153366089,1.1775954961776733
1682879843816487400,14.3694873046875,7.596720218658447,1.5763378143310547,0.6901249885559082
1682879843833358600,14.386358642578125,9.106473922729492,1.7259997129440308,0.7519751191139221
1682879843850229800,14.403229736328125,9.949009895324707,1.518610954284668,1.1073459386825562
1682879843867101000,14.420100830078125,10.029032707214355,1.3716979026794434,1.2147055864334106
1682879843883979300,14.436979248046875,9.485820770263672,1.8330538272857666,0.7878634333610535
1682879843900842500,14.453842529296875,8.553946495056152,2.6583328247070312,-0.36651915311813354
1682879843917714200,14.470714111328125,7.793724060058594,3.2348368167877197,-1.9210184812545776
1682879843934585600,14.487585693359375,7.528456211090088,3.234989643096924,-2.548529863357544
1682879843951444000,14.50444384765625,7.453930377960205,2.3330471515655518,-1.4126259088516235
1682879843968330800,14.521330810546875,7.624056339263916,1.7635679244995117,0.1644754707813263
1682879843985196500,14.538196533203125,7.614130020141602,1.8762725591659546,0.8350527882575989
1682879844002073300,14.5550732421875,7.233102798461914,2.3238840103149414,0.6827946305274963
1682879844018941700,14.571941650390626,6.9582133293151855,2.6841418743133545,0.20204368233680725
1682879844035803000,14.588802978515625,7.232797145843506,2.9410107135772705,-0.09743300825357437
1682879844052684000,14.60568408203125,7.639633655548096,2.878244400024414,-0.12858712673187256
1682879844069555200,14.62255517578125,7.742869853973389,2.3580925464630127,0.18509216606616974
1682879844086426400,14.63942626953125,7.346723556518555,2.3264803886413574,0.46379944682121277
1682879844103298000,14.656298095703125,7.168503761291504,2.7169759273529053,0.10384709388017654
1682879844120169200,14.673169189453125,7.815562725067139,1.9223929643630981,0.3251330256462097
1682879844137040100,14.6900400390625,9.019730567932129,1.0557278394699097,1.429271936416626
1682879844153911300,14.706911376953125,8.857698440551758,1.6670511960983276,1.037249207496643
1682879844170782700,14.72378271484375,7.451639652252197,3.689931631088257,-0.9054549932479858
1682879844187643100,14.74064306640625,6.5952067375183105,4.327369213104248,-2.2183570861816406
1682879844204525300,14.757525390625,6.434243679046631,2.7644705772399902,-1.8823812007904053
1682879844221393200,14.77439306640625,5.804441452026367,0.8747590184211731,-0.4499022662639618
1682879844238270000,14.79127001953125,4.426177024841309,0.5163338780403137,0.8494081497192383
1682879844255138600,14.808138671875,2.230268955230713,1.5499178171157837,1.1455250978469849
1682879844272009700,14.825009765625,-0.9911288619041443,2.844341278076172,0.10094548016786575
1682879844288870400,14.841870361328125,-3.0700559616088867,3.6169331073760986,-0.6258314251899719
1682879844305741800,14.858741943359375,-4.248109817504883,3.257286310195923,-0.7993171811103821
1682879844322613000,14.875613037109375,-4.9929070472717285,2.7015514373779297,-0.9518807530403137
1682879844339494700,14.89249462890625,-5.7241129875183105,2.7951667308807373,-1.0239628553390503
1682879844356366300,14.909366455078125,-6.434091091156006,2.4026856422424316,-0.22327125072479248
1682879844373237200,14.9262373046875,-7.208973407745361,0.9868528246879578,1.2246321439743042
1682879844390108400,14.9431083984375,-7.931779861450195,-0.9431759119033813,2.757445812225342
1682879844406967000,14.959967041015625,-8.62144660949707,-2.8405234813690186,3.971845865249634
1682879844423843000,14.976843017578124,-9.152288436889648,-4.617988586425781,4.7082438468933105
1682879844440722000,14.993721923828126,-9.77796745300293,-5.617974758148193,4.523457050323486
1682879844457580500,15.01058056640625,-10.176709175109863,-5.382638931274414,3.5573737621307373
1682879844474457300,15.027457275390624,-10.135781288146973,-4.898070335388184,2.6371052265167236
1682879844491322600,15.044322509765625,-10.142806053161621,-4.539492130279541,2.4587326049804688
1682879844508197600,15.06119775390625,-10.614394187927246,-4.518723011016846,2.3189971446990967
1682879844525068300,15.078068359375,-10.748785018920898,-4.503756523132324,1.5315918922424316
1682879844541942000,15.09494189453125,-10.504133224487305,-4.120591640472412,0.8419250249862671
1682879844558810600,15.111810546875,-10.279945373535156,-3.561649799346924,0.6696610450744629
1682879844575681800,15.128681884765625,-9.997572898864746,-3.3571627140045166,1.0074695348739624
1682879844592553500,15.145553466796875,-9.586155891418457,-3.37518310546875,1.521665334701538
1682879844609425700,15.16242578125,-9.306379318237305,-3.5155293941497803,1.9055941104888916
1682879844626295600,15.179295654296874,-9.227577209472656,-3.9325976371765137,2.325411319732666
1682879844643168800,15.196168701171874,-9.260258674621582,-4.273155212402344,2.6978864669799805
1682879844660039000,15.213038818359376,-8.950092315673828,-4.510629177093506,2.3548855781555176
1682879844676910600,15.22991064453125,-7.962323188781738,-4.012010097503662,0.7866417169570923
1682879844693780500,15.246780517578125,-6.267019271850586,-2.2153027057647705,-1.5755741596221924
1682879844710652700,15.263652587890626,-4.794375896453857,0.10354165732860565,-4.290106773376465
1682879844727523300,15.2805234375,-3.7972910404205322,1.947438359260559,-5.527566909790039
1682879844744403700,15.29740380859375,-1.3771957159042358,2.2956316471099854,-2.99308705329895
1682879844761278000,15.31427783203125,2.3125832080841064,1.863444447517395,0.8278751373291016
1682879844778144300,15.331144287109375,5.7160186767578125,2.660470962524414,2.317317247390747
1682879844795020300,15.348020263671875,8.203920364379883,3.3264667987823486,1.6468926668167114
1682879844811889200,15.36488916015625,9.920451164245605,3.9536726474761963,0.6414085030555725
1682879844828760300,15.38176025390625,10.904097557067871,4.423580646514893,0.14492778480052948
1682879844845621000,15.39862109375,10.352639198303223,4.340350151062012,0.14278975129127502
1682879844862499800,15.415499755859376,9.275683403015137,3.9515345096588135,-0.2785545587539673
1682879844879375000,15.432375,8.53210735321045,4.035223007202148,-1.552361249923706
1682879844896236500,15.449236572265624,8.362287521362305,3.9623773097991943,-2.8935160636901855
1682879844913116400,15.466116455078126,8.58082389831543,3.478724956512451,-3.3815972805023193
1682879844929987000,15.482987060546876,8.829904556274414,2.978579044342041,-2.9269607067108154
1682879844946867000,15.499866943359375,8.14222240447998,2.0254764556884766,-1.6374242305755615
1682879844963729700,15.516729736328125,6.8410797119140625,1.3790283203125,-0.3240640163421631
1682879844980600800,15.533600830078125,6.081927299499512,1.4815009832382202,0.07864890247583389
1682879844997474300,15.550474365234376,6.437145233154297,1.891238808631897,-0.2675589919090271
1682879845014339300,15.56733935546875,6.989978313446045,2.19163179397583,-0.9004153609275818
1682879845031215000,15.584215087890625,7.392538547515869,2.4663684368133545,-1.3321443796157837
1682879845048087600,15.601087646484375,7.257842540740967,1.8852828741073608,-0.693026602268219
1682879845064957400,15.61795751953125,6.832833290100098,1.273043155670166,0.4283692538738251
1682879845081827800,15.634827880859374,6.710813045501709,1.4917329549789429,0.7567093372344971
1682879845098699500,15.651699462890624,6.96783447265625,2.431701898574829,-0.12507465481758118
1682879845115557600,15.6685576171875,7.570605754852295,3.4489452838897705,-1.6262760162353516
1682879845132444700,15.685444580078125,7.933001518249512,3.7806448936462402,-3.11785626411438
1682879845149313000,15.70231298828125,7.243639945983887,3.6839754581451416,-4.4848198890686035
1682879845166184700,15.719184814453126,6.406449317932129,3.9193115234375,-5.992740631103516
1682879845183045000,15.736045166015625,6.140264511108398,3.754072427749634,-7.097185134887695
1682879845199926800,15.7529267578125,6.349485874176025,2.420400857925415,-5.6850175857543945
1682879845216787500,15.769787353515625,5.75419807434082,-0.12293662875890732,-2.313957452774048
1682879845233669600,15.786669677734375,4.4875688552856445,-2.920241355895996,0.9605855941772461
1682879845250540300,15.803540283203125,2.1397082805633545,-2.1760547161102295,1.529911994934082
1682879845267402000,15.820402099609375,-0.8184067010879517,0.8878926634788513,-0.569631814956665
1682879845284283000,15.837282958984375,-2.353205680847168,3.177415609359741,-2.129476308822632
1682879845301154000,15.854154052734375,-3.045926809310913,3.53446626663208,-1.7939585447311401
1682879845318009000,15.871009033203125,-3.8922805786132812,3.053562641143799,-0.7121161818504333
1682879845334886100,15.88788623046875,-4.639979839324951,2.5899159908294678,0.4535674452781677
1682879845351765500,15.904765625,-5.486791610717773,1.2811371088027954,1.8800904750823975
1682879845368631000,15.921631103515624,-6.808093070983887,-0.34315356612205505,3.4211509227752686
1682879845385497900,15.938497802734375,-8.050593376159668,-1.2733485698699951,4.431674480438232
1682879845402381600,15.955381591796876,-8.90748405456543,-1.7614299058914185,4.6693010330200195
1682879845419244500,15.97224462890625,-9.811564445495605,-2.3179280757904053,4.4483208656311035
1682879845436124200,15.989124267578125,-10.543534278869629,-2.7768406867980957,4.176638603210449
1682879845452995300,16.005995361328125,-10.807733535766602,-3.121063232421875,3.827376127243042
1682879845469866200,16.0228662109375,-11.318111419677734,-3.1253392696380615,3.360522508621216
1682879845486737700,16.039737548828125,-11.87460994720459,-2.872441053390503,2.4098634719848633
1682879845503598300,16.056598388671876,-11.80695629119873,-2.59098482131958,1.4978415966033936
1682879845520481300,16.073481201171877,-11.42883014678955,-2.5802948474884033,1.074512004852295
1682879845537351400,16.090351318359374,-10.87126350402832,-2.7291932106018066,1.3344351053237915
1682879845554222600,16.10722265625,-10.451446533203125,-3.026073694229126,2.071902275085449
1682879845571086000,16.124086181640624,-10.39142894744873,-3.6158640384674072,2.8234190940856934
1682879845587963100,16.140963134765624,-10.100351333618164,-3.6697728633880615,2.7936394214630127
1682879845604836400,16.15783642578125,-9.5774507522583,-2.744312047958374,2.1279489994049072
1682879845621704700,16.17470458984375,-9.084177017211914,-2.140777349472046,1.8486309051513672
1682879845638581500,16.19158154296875,-7.853283405303955,-3.277444839477539,2.5001187324523926
1682879845655454000,16.208453857421876,-6.4753241539001465,-4.357454299926758,2.7763824462890625
1682879845672321000,16.225321044921873,-4.429841995239258,-3.575699806213379,0.06887505948543549
1682879845689186300,16.242186279296874,-3.182149887084961,-0.6354525685310364,-4.636620044708252
1682879845706063600,16.259063720703125,-2.8049404621124268,1.5294538736343384,-6.645450115203857
1682879845722934500,16.2759345703125,-1.753335952758789,0.28817567229270935,-4.2612433433532715
1682879845739805400,16.292805419921876,0.19853121042251587,-0.8684976696968079,-0.988990843296051
1682879845756678100,16.30967822265625,2.2177462577819824,0.013591751456260681,0.10048733651638031
1682879845773548300,16.32654833984375,3.9997928142547607,1.1902709007263184,0.16264286637306213
1682879845790419000,16.3434189453125,5.6709675788879395,1.481042742729187,0.9906707406044006
1682879845807291400,16.36029150390625,7.077637672424316,0.9865473508834839,2.5311200618743896
1682879845824162000,16.377162109375,8.043415069580078,0.8732318878173828,3.4623842239379883
1682879845841032700,16.39403271484375,8.529511451721191,1.4790574312210083,3.132364273071289
1682879845857904000,16.410904052734374,8.466897964477539,2.7293457984924316,1.940413475036621
1682879845874776800,16.42777685546875,7.749436378479004,3.807981252670288,0.485027015209198
1682879845891650000,16.444650146484374,7.160409450531006,4.639063358306885,-1.0682506561279297
1682879845908515000,16.46151513671875,7.228979110717773,4.917006969451904,-2.1539108753204346
1682879845925389300,16.478389404296873,7.593360424041748,4.655251502990723,-2.57983660697937
1682879845942260700,16.4952607421875,7.73645544052124,3.2039883136749268,-1.7881553173065186
1682879845959132000,16.5121318359375,7.711257457733154,1.9179641008377075,-0.2278527319431305
1682879845976000500,16.52900048828125,7.528456211090088,2.0201313495635986,0.3614795207977295
1682879845992877000,16.545876953125,7.489665985107422,2.8817567825317383,-0.3604104816913605
1682879846009745200,16.5627451171875,7.980648994445801,3.49185848236084,-1.6171129941940308
1682879846026616600,16.579616455078124,8.558833122253418,3.846771240234375,-1.961030125617981
1682879846043479300,16.596479248046876,8.717658042907715,3.646101951599121,-1.4220943450927734
1682879846060359200,16.613359130859376,8.317693710327148,3.059365749359131,-1.092837929725647
1682879846077230600,16.630230712890626,8.18147087097168,2.7843236923217773,-1.6627751588821411
1682879846094099700,16.647099609375,8.540048599243164,3.0049989223480225,-2.6342036724090576
1682879846110972400,16.663972412109374,8.451778411865234,3.4990360736846924,-3.6923749446868896
1682879846127846700,16.6808466796875,7.287164211273193,4.346917152404785,-4.87699556350708
1682879846144715000,16.697715087890625,5.903401851654053,4.4819183349609375,-5.849950790405273
1682879846161586200,16.714586181640627,5.178152084350586,3.6048684120178223,-6.62697172164917
1682879846178442200,16.731442138671873,5.387373447418213,1.9843957424163818,-6.987229347229004
1682879846195328800,16.748328857421875,6.296035289764404,-0.328340083360672,-5.013981819152832
1682879846212197000,16.765197021484376,5.67738151550293,-2.0642664432525635,-1.6378824710845947
1682879846229074400,16.782074462890623,1.8151860237121582,-0.5894849896430969,0.12553280591964722
1682879846245942500,16.798942626953124,-2.4689645767211914,1.49738347530365,0.061391957104206085
1682879846262813700,16.815813720703126,-4.0046796798706055,2.3104450702667236,-0.38026362657546997
1682879846279683600,16.83268359375,-4.140444755554199,3.039665460586548,-0.45463645458221436
1682879846296550400,16.84955029296875,-4.750851631164551,3.3015739917755127,0.3631593883037567
1682879846313427200,16.86642724609375,-5.528177738189697,2.358245372772217,2.055103302001953
1682879846330299000,16.883298828125,-6.360939979553223,0.955545961856842,3.7278051376342773
1682879846347169800,16.900169677734375,-7.191563606262207,-0.4086688458919525,4.880355358123779
1682879846364041000,16.917041015625,-8.21766471862793,-1.6572774648666382,5.584529876708984
1682879846380912000,16.933912109375,-9.351430892944336,-2.5757133960723877,5.877439975738525
1682879846397783600,16.950783447265625,-9.748950958251953,-2.922684669494629,5.730985164642334
1682879846414644000,16.96764404296875,-9.837221145629883,-2.9852983951568604,4.980536937713623
1682879846431523800,16.98452392578125,-9.988868713378906,-3.11312198638916,4.016744613647461
1682879846448400000,17.00139990234375,-10.147846221923828,-2.928793430328369,3.028975248336792
1682879846465260000,17.018260009765626,-10.008721351623535,-2.4242186546325684,2.180178165435791
1682879846482139400,17.035139404296874,-10.231687545776367,-1.8390097618103027,1.7411186695098877
1682879846499010800,17.0520107421875,-10.372797012329102,-1.676672339439392,1.5925257205963135
1682879846515863300,17.06886328125,-10.176556587219238,-2.026240110397339,1.788002610206604
1682879846532753700,17.085753662109376,-9.754448890686035,-2.2539401054382324,2.2119431495666504
1682879846549627600,17.102627685546874,-9.168170928955078,-2.4210116863250732,2.6447410583496094
1682879846566495700,17.119495849609375,-8.711548805236816,-2.559830904006958,2.869386672973633
1682879846583367400,17.136367431640625,-8.405658721923828,-2.3492350578308105,2.6141977310180664
1682879846600227600,17.1532275390625,-8.336935997009277,-1.9045251607894897,2.177734613418579
1682879846617109200,17.170109130859377,-7.853589057922363,-1.9396498203277588,2.2127065658569336
1682879846633981000,17.18698095703125,-6.9661545753479,-2.708271026611328,2.76111102104187
1682879846650862600,17.203862548828123,-5.653099536895752,-2.9107728004455566,2.2757785320281982
1682879846667723300,17.22072314453125,-3.81378436088562,-2.0590739250183105,-0.5862779021263123
1682879846684581600,17.23758154296875,-2.9271135330200195,0.09697485715150833,-4.183510780334473
1682879846701455400,17.254455322265624,-2.6455047130584717,1.4911220073699951,-5.651419639587402
1682879846718339300,17.27133935546875,-1.4315626621246338,0.3871358633041382,-4.213595867156982
1682879846735205000,17.288205078125,1.0056369304656982,-0.43020185828208923,-1.6859880685806274
1682879846752081700,17.30508154296875,3.631441116333008,0.18616119027137756,-0.2921462953090668
1682879846768950500,17.321950439453126,6.130185604095459,1.1330022811889648,0.14935655891895294
1682879846785821700,17.33882177734375,7.9494948387146,1.2646437883377075,0.5097670555114746
1682879846802692900,17.35569287109375,9.146943092346191,0.9795224070549011,1.253495454788208
1682879846819564300,17.372564208984375,9.7587251663208,0.9847147464752197,1.997223973274231
1682879846836435500,17.389435546875,9.530872344970703,1.195005178451538,2.2012529373168945
1682879846853306400,17.406306396484375,8.618239402770996,2.041206121444702,1.4517213106155396
1682879846870178000,17.423177978515625,7.719656944274902,3.1002938747406006,-0.10155634582042694
1682879846887049200,17.44004931640625,7.470576286315918,3.6479344367980957,-1.206153392791748
1682879846903920000,17.456920166015625,7.737677574157715,3.554166793823242,-1.3420709371566772
1682879846920791600,17.47379150390625,7.749589443206787,2.738814353942871,-0.6246097087860107
1682879846937662700,17.490662841796876,7.48386287689209,2.0480785369873047,0.16508632898330688
1682879846954533600,17.50753369140625,7.2676167488098145,1.8958202600479126,0.543059229850769
1682879846971403800,17.52440380859375,7.3042683601379395,2.174222230911255,0.5931501388549805
1682879846988277800,17.54127783203125,7.650018215179443,2.6844472885131836,0.12919799983501434
1682879847005147400,17.5581474609375,8.167115211486816,3.377473831176758,-0.3908010423183441
1682879847022019000,17.57501904296875,8.4953031539917,3.5471417903900146,-0.7484626173973083
1682879847038872000,17.5918720703125,8.297229766845703,3.3102786540985107,-0.7386888265609741
1682879847055750700,17.608750732421875,8.078845977783203,3.1619911193847656,-0.712574303150177
1682879847072632600,17.625632568359375,8.406575202941895,3.3760995864868164,-1.2466232776641846
1682879847089501200,17.642501220703124,8.633511543273926,3.5836410522460938,-2.696206569671631
1682879847106374000,17.659373779296875,8.502022743225098,4.27437686920166,-4.567592144012451
1682879847123249200,17.676249267578125,8.155051231384277,4.700455188751221,-5.836970329284668
1682879847140117200,17.6931171875,7.2037811279296875,3.8847975730895996,-5.962044715881348
1682879847156988700,17.70998876953125,6.437145233154297,1.788308024406433,-4.754669666290283
1682879847173859600,17.726859619140626,6.746548652648926,-1.5138767957687378,-1.9668333530426025
1682879847190730800,17.743730712890624,5.932265281677246,-2.9320003986358643,0.8909469842910767
1682879847207598600,17.7605986328125,3.0108020305633545,-1.6740761995315552,1.7760907411575317
1682879847224476200,17.77747607421875,-1.0393872261047363,0.14019356667995453,0.9101892113685608
1682879847241342700,17.7943427734375,-3.9095375537872314,2.2015583515167236,-0.5036584138870239
1682879847258218200,17.81121826171875,-5.081024169921875,3.350443124771118,-1.4489723443984985
1682879847275082800,17.828082763671876,-5.479002952575684,3.313333034515381,-1.5502232313156128
1682879847291962000,17.844962158203124,-6.010456085205078,2.6250407695770264,-0.6264423131942749
1682879847308829400,17.861829345703125,-6.667288780212402,1.5096007585525513,1.0911580324172974
1682879847325690000,17.878690185546876,-7.178735733032227,0.394618958234787,2.8547260761260986
1682879847342572000,17.895572021484377,-7.743022441864014,-0.44287729263305664,4.005596160888672
1682879847359443000,17.91244287109375,-8.584336280822754,-1.5137240886688232,4.5853071212768555
1682879847376296000,17.9292958984375,-9.501245498657227,-2.5166120529174805,4.79819393157959
1682879847393188600,17.946188720703127,-10.103711128234863,-3.109915018081665,4.597066402435303
1682879847410060500,17.963060546875,-10.195798873901367,-3.1002938747406006,4.097226142883301
1682879847426927900,17.979927978515626,-10.126160621643066,-3.096323251724243,3.593262195587158
1682879847443804400,17.996804443359373,-10.20984935760498,-3.252704620361328,3.09586501121521
1682879847460670700,18.013670654296874,-10.31155776977539,-2.813645362854004,2.456594467163086
1682879847477541600,18.030541748046875,-10.3390474319458,-1.8949040174484253,1.6475036144256592
1682879847494413300,18.047413330078125,-10.280251502990723,-1.4095715284347534,1.342529058456421
1682879847511283000,18.064282958984375,-10.069197654724121,-1.4873042106628418,1.7052303552627563
1682879847528156700,18.08115673828125,-9.660834312438965,-1.914909839630127,2.182468891143799
1682879847545026600,18.098026611328127,-9.119454383850098,-2.232712507247925,2.649475336074829
1682879847561897200,18.114897216796876,-8.770650863647461,-2.5022568702697754,3.1144964694976807
1682879847578769200,18.13176904296875,-8.588765144348145,-2.7878363132476807,3.288593053817749
1682879847595629800,18.1486298828125,-7.912231922149658,-2.615877628326416,3.0389018058776855
1682879847612511500,18.165511474609374,-7.040832996368408,-2.437047004699707,2.7267496585845947
1682879847629382700,18.182382568359376,-5.7855048179626465,-2.668259382247925,2.7090346813201904
1682879847646254000,18.199254150390626,-4.359745025634766,-2.7084238529205322,1.5563318729400635
1682879847663125200,18.216125244140624,-2.822044610977173,-1.9454530477523804,-1.0772608518600464
1682879847679993300,18.232993408203125,-1.9620991945266724,-0.1498146951198578,-4.507880210876465
1682879847696867800,18.249867919921876,-1.9912680387496948,1.3385584354400635,-6.570008277893066
1682879847713739000,18.266739013671874,-1.8348864316940308,0.7225008606910706,-5.263520240783691
1682879847730610200,18.283610107421875,0.005650503560900688,-0.5141957998275757,-2.121382236480713
1682879847747481300,18.3004814453125,3.050966501235962,-0.29138273000717163,-0.09086620807647705
1682879847764352500,18.3173525390625,5.739384174346924,0.8720101118087769,0.34177911281585693
1682879847781226500,18.3342265625,7.864431858062744,1.5094480514526367,0.5413793325424194
1682879847798094000,18.351093994140626,9.665873527526855,1.1178834438323975,1.3828462362289429
1682879847814966300,18.36796630859375,10.51237964630127,0.7615962624549866,2.3961188793182373
1682879847831839500,18.384839599609375,10.022313117980957,0.8269588351249695,2.434603452682495
1682879847848706800,18.401706787109376,9.196881294250488,1.3881912231445312,1.149037480354309
1682879847865569500,18.418569580078124,8.590445518493652,2.3680191040039062,-0.6186537742614746
1682879847882440400,18.4354404296875,8.224994659423828,2.6844472885131836,-1.4700472354888916
1682879847899311000,18.45231103515625,8.050593376159668,2.545933723449707,-1.3668110370635986
1682879847916196000,18.469196044921876,7.900930881500244,2.325105905532837,-1.0346530675888062
1682879847933051400,18.486051513671875,7.504785060882568,1.9604192972183228,-0.5357288122177124
1682879847949936000,18.50293603515625,7.118565559387207,1.5931365489959717,0.11759155988693237
1682879847966797000,18.519797119140627,7.101766586303711,1.6731599569320679,0.2915354371070862
1682879847983667700,18.536667724609377,7.432549953460693,1.9310977458953857,-0.22479841113090515
1682879848000542700,18.553542724609375,7.792349815368652,2.369699001312256,-0.5777258276939392
1682879848017411000,18.5704111328125,7.754934310913086,2.4943156242370605,-0.4885394871234894
1682879848034286600,18.58728662109375,7.570605754852295,2.3910791873931885,-0.04932736977934837
1682879848051155200,18.6041552734375,7.710035800933838,2.244776964187622,0.3029891550540924
1682879848068026000,18.621026123046875,7.907345294952393,2.476600408554077,0.24465152621269226
1682879848084895200,18.637895263671876,7.993171691894531,3.031571388244629,-0.46441030502319336
1682879848101766400,18.654766357421874,8.399396896362305,3.7146716117858887,-1.8167132139205933
1682879848118638800,18.671638916015624,8.74255084991455,4.834540367126465,-3.759875535964966
1682879848135502600,18.688502685546876,8.348084449768066,5.407379150390625,-5.71357536315918
1682879848152382500,18.705382568359376,7.580074310302734,4.078747272491455,-5.843384265899658
1682879848169254000,18.72225390625,7.251276016235352,0.7930558323860168,-2.9863674640655518
1682879848186123000,18.739123046875,6.149427890777588,-2.242180824279785,0.7429648637771606
1682879848202995700,18.75599560546875,3.749032735824585,-2.2211060523986816,2.573269844055176
1682879848219869700,18.77286962890625,0.5597052574157715,-0.32070425152778625,2.222022294998169
1682879848236736500,18.789736572265625,-2.0645718574523926,1.6490306854248047,1.1552989482879639
1682879848253620000,18.806619873046873,-3.989866256713867,2.5751023292541504,0.47189339995384216
1682879848270480000,18.82347998046875,-5.3861517906188965,2.4631614685058594,-0.15913039445877075
1682879848287360300,18.8403603515625,-6.072458744049072,2.5109615325927734,-0.6398813724517822
1682879848304232000,18.85723193359375,-6.351624011993408,2.6700918674468994,-0.26313021779060364
1682879848321100300,18.874100341796876,-6.492123126983643,2.126880168914795,1.037249207496643
1682879848337976000,18.89097607421875,-6.815270900726318,0.5484042763710022,3.04546856880188
1682879848354845200,18.90784521484375,-7.544491291046143,-1.4723379611968994,4.820948600769043
1682879848371716400,18.92471630859375,-8.50003719329834,-3.3449454307556152,5.429675579071045
1682879848388577300,18.941577392578125,-9.187870979309082,-4.763374328613281,5.164102077484131
1682879848405458700,18.958458740234374,-9.329745292663574,-4.902499198913574,4.710992813110352
1682879848422330400,18.975330322265624,-9.39648151397705,-3.9104537963867188,3.9266417026519775
1682879848439201300,18.992201171875,-9.658390045166016,-2.9973630905151367,2.716517686843872
1682879848456073000,19.009072998046875,-9.912052154541016,-2.6285531520843506,1.663996934890747
1682879848472943900,19.02594384765625,-9.832944869995117,-2.5085182189941406,1.2831224203109741
1682879848489814800,19.042814697265626,-9.63288688659668,-2.571284532546997,1.4283556938171387
1682879848506677000,19.059677001953126,-9.477116584777832,-2.1765129566192627,1.6142114400863647
1682879848523557600,19.0765576171875,-9.575160026550293,-1.8884899616241455,1.6812539100646973
1682879848540428500,19.093428466796876,-9.852339744567871,-1.9898935556411743,1.9871445894241333
1682879848557300200,19.11030029296875,-9.832334518432617,-2.2572999000549316,2.587930679321289
1682879848574171100,19.127171142578124,-9.53652286529541,-2.420400857925415,3.0053043365478516
1682879848591041800,19.144041748046874,-9.378308296203613,-2.140929937362671,3.0169107913970947
1682879848607913700,19.160913818359376,-9.16084098815918,-1.4501941204071045,2.534785270690918
1682879848624785200,19.17778515625,-8.949633598327637,-0.8807149529457092,2.00394344329834
1682879848641656000,19.194656005859375,-8.010734558105469,-1.4332425594329834,2.0952677726745605
1682879848658527500,19.211527587890625,-5.497481822967529,-1.923156499862671,2.459190845489502
1682879848675394600,19.22839453125,-2.933680295944214,-1.2111930847167969,0.7985535860061646
1682879848692269600,19.24526953125,-1.7342463731765747,1.0545061826705933,-2.5836546421051025
1682879848709138200,19.26213818359375,-0.8953757286071777,2.7068965435028076,-3.9938368797302246
1682879848726014700,19.2790146484375,0.9265298843383789,1.4256067276000977,-2.149787425994873
1682879848742883600,19.295883544921875,2.8626673221588135,0.2142609804868698,0.3972151279449463
1682879848759754800,19.312754638671876,4.462676048278809,0.35674530267715454,1.2776246070861816
1682879848776626000,19.3296259765625,5.76397180557251,0.894001305103302,1.052673578262329
1682879848793497300,19.346497314453124,7.082371711730957,0.9870055317878723,0.9822713136672974
1682879848810368500,19.363368408203126,8.375115394592285,0.7470881938934326,1.214400053024292
1682879848827237000,19.380237060546875,9.15305233001709,0.6765332818031311,1.3083206415176392
1682879848844113000,19.39711279296875,9.047525405883789,1.0668761730194092,0.9715811610221863
1682879848860982300,19.413982177734376,7.995157241821289,2.1265745162963867,-0.36102136969566345
1682879848877853200,19.430853271484374,7.2706708908081055,2.9695687294006348,-2.3379340171813965
1682879848894724600,19.447724609375,7.232033729553223,3.559359073638916,-3.80737042427063
1682879848911595800,19.464595703125,7.268838405609131,3.730095863342285,-4.319733619689941
1682879848928467200,19.48146728515625,7.412086009979248,3.308140754699707,-4.0071234703063965
1682879848945337600,19.498337646484377,7.33847713470459,1.4523321390151978,-2.2843306064605713
1682879848962209300,19.515209228515626,6.771746635437012,-0.5300782918930054,0.6244570016860962
1682879848979080700,19.532080810546876,6.075360298156738,-0.547182559967041,1.9185750484466553
1682879848995951900,19.548951904296874,5.952729225158691,0.9173668622970581,1.115287184715271
1682879849012823300,19.5658232421875,6.618877410888672,2.4191792011260986,0.003359758760780096
1682879849029694200,19.582694091796874,7.25020694732666,2.4159719944000244,-0.21639901399612427
1682879849046565400,19.5995654296875,7.558541297912598,1.6314682960510254,0.5858197808265686
1682879849063434000,19.61643408203125,7.486458778381348,1.6294829845428467,1.3672691583633423
1682879849080310000,19.63331005859375,7.500814437866211,2.447889804840088,1.2829697132110596
1682879849097179100,19.65017919921875,8.288372039794922,3.8734965324401855,0.025656340643763542
1682879849114050000,19.667050048828123,9.663277626037598,4.5518622398376465,-2.105194330215454
1682879849130917600,19.683917724609376,9.502161979675293,3.8208093643188477,-4.229020118713379
1682879849147792600,19.700792724609375,7.969653606414795,4.020256996154785,-5.240765571594238
1682879849164661200,19.7176611328125,7.236462593078613,4.375016689300537,-5.553681373596191
1682879849181535200,19.73453515625,7.374059677124023,2.7392725944519043,-4.021478652954102
1682879849198405400,19.7514052734375,6.697068214416504,0.3568980097770691,-0.6577491760253906
1682879849215267600,19.768267578125,4.722904682159424,-0.6085745096206665,1.6931657791137695
1682879849232148700,19.785148681640624,1.186300277709961,0.3643811047077179,2.0144808292388916
1682879849249020200,19.802020263671874,-2.2430970668792725,1.9987510442733765,0.707840085029602
1682879849265891300,19.818891357421876,-3.720932960510254,3.308446168899536,-0.33887749910354614
1682879849282762500,19.835762451171874,-4.494899272918701,3.6477818489074707,-0.7652614116668701
1682879849299633400,19.85263330078125,-5.3079609870910645,3.60074520111084,-0.6464481353759766
1682879849316497200,19.8694970703125,-6.001140117645264,3.1031954288482666,0.23640485107898712
1682879849333376300,19.886376220703124,-6.621779441833496,1.9022343158721924,1.7664695978164673
1682879849350247200,19.9032470703125,-7.156897068023682,0.4079052805900574,3.396868944168091
1682879849367103500,19.920103515625,-7.619933128356934,-0.9149234294891357,4.677242279052734
1682879849383990000,19.936989990234373,-8.338157653808594,-2.1700987815856934,5.361869812011719
1682879849400861200,19.953861083984375,-9.099601745605469,-3.210096836090088,5.521152973175049
1682879849417732000,19.970732177734376,-9.45573616027832,-4.002083778381348,5.133864402770996
1682879849434603300,19.987603271484375,-9.593485832214355,-3.922823905944824,4.535827159881592
1682879849451472000,20.004471923828124,-9.833556175231934,-3.3118059635162354,3.7528505325317383
1682879849468345600,20.021345703125,-10.265131950378418,-2.7119362354278564,2.9439122676849365
1682879849485217300,20.03821728515625,-10.592708587646484,-2.674673557281494,2.5251641273498535
1682879849502085000,20.055085205078125,-10.594694137573242,-2.8289170265197754,2.4445300102233887
1682879849518959400,20.07195947265625,-10.4120454788208,-2.8793132305145264,2.336254119873047
1682879849535827700,20.08882763671875,-9.96703052520752,-2.6674957275390625,2.160325050354004
1682879849552702000,20.105701904296875,-9.537286758422852,-2.2401955127716064,1.8819230794906616
1682879849569559000,20.12255908203125,-9.582489967346191,-2.0082194805145264,1.6421585083007812
1682879849586444500,20.139444580078123,-9.562484741210938,-2.120924234390259,1.725541591644287
1682879849603315500,20.1563154296875,-8.980635643005371,-1.9990564584732056,2.3295345306396484
1682879849620186600,20.1731865234375,-8.499884605407715,-1.5294538736343384,2.9158124923706055
1682879849637058300,20.190058349609377,-7.457442760467529,-1.8416060209274292,2.306474447250366
1682879849653929200,20.20692919921875,-5.719531059265137,-2.269669771194458,0.9159924387931824
1682879849670798600,20.223798583984376,-3.4859025478363037,-1.6843081712722778,-0.5849034786224365
1682879849687671800,20.240671875,-1.6720908880233765,-0.15286903083324432,-2.372905969619751
1682879849704543000,20.25754296875,-0.9355401396751404,1.0978775024414062,-3.670841932296753
1682879849721411600,20.27441162109375,-0.1921171247959137,1.1186469793319702,-3.2649219036102295
1682879849738288400,20.291288330078125,1.39017653465271,0.24098633229732513,-1.568701982498169
1682879849755156500,20.308156494140626,3.6083810329437256,0.1508837193250656,-0.28496864438056946
1682879849772027600,20.325027587890624,5.5765886306762695,0.7716755270957947,0.07696902006864548
1682879849788899000,20.341899169921874,6.926600933074951,1.0332785844802856,0.10399980843067169
1682879849805772500,20.3587724609375,8.317846298217773,0.8324565887451172,0.5355761051177979
1682879849822639000,20.37563916015625,9.58493423461914,0.740368664264679,1.2664763927459717
1682879849839515400,20.392515380859376,10.268033981323242,0.7153232097625732,1.906968593597412
1682879849856384300,20.40938427734375,10.1651029586792,1.2539535760879517,1.9339994192123413
1682879849873242400,20.426242431640624,8.592124938964844,2.124131202697754,0.7996225953102112
1682879849890115600,20.443115478515626,6.990436553955078,3.0361530780792236,-1.1050552129745483
1682879849906989600,20.459989501953125,6.6205573081970215,2.992628812789917,-1.801899790763855
1682879849923865900,20.476865966796876,7.126506805419922,1.9958494901657104,-0.42577308416366577
1682879849940743200,20.4937431640625,7.647269248962402,1.4911220073699951,0.8654433488845825
1682879849957609000,20.51060888671875,7.510129928588867,2.055103302001953,0.7524332404136658
1682879849974485200,20.5274853515625,7.166365623474121,3.1005992889404297,-0.15882496535778046
1682879849991354400,20.544354248046876,7.284415245056152,3.692833185195923,-1.010829210281372
1682879850008224000,20.56122412109375,7.721336841583252,3.7847683429718018,-1.0514518022537231
1682879850025096400,20.578096435546875,8.309294700622559,3.1920764446258545,-0.6299547553062439
1682879850041967600,20.594967529296873,8.547532081604004,2.676811456680298,-0.3831652104854584
1682879850058837800,20.611837646484375,8.308989524841309,2.688570737838745,-0.5549710988998413
1682879850075700200,20.6287001953125,7.8125081062316895,3.6134207248687744,-1.050840973854065
1682879850092578600,20.64557861328125,7.625888824462891,4.21787166595459,-1.652695894241333
1682879850109455000,20.662455078125,7.831750392913818,3.801872491836548,-2.1319196224212646
1682879850126323200,20.6793232421875,7.680408954620361,3.408933401107788,-2.945439577102661
1682879850143194600,20.696194580078124,7.2218017578125,3.542712926864624,-4.129448890686035
1682879850160063500,20.7130634765625,7.335575103759766,2.8403706550598145,-4.55674934387207
1682879850176939800,20.729939697265625,8.276918411254883,-0.007024950347840786,-3.1196887493133545
1682879850193806600,20.746806640625,7.536855220794678,-2.6794075965881348,-0.5062545537948608
1682879850210681600,20.763681640625,3.6916112899780273,-2.4433083534240723,1.2800681591033936
1682879850227543600,20.78054345703125,-0.6120869517326355,-1.1047497987747192,1.4152220487594604
1682879850244422000,20.797421875,-3.198948621749878,0.9532552361488342,0.49205195903778076
1682879850261290000,20.8142900390625,-4.280943870544434,2.3344216346740723,-0.7428121566772461
1682879850278168000,20.83116796875,-4.876079082489014,2.8017334938049316,-1.3979650735855103
1682879850295032800,20.84803271484375,-5.5371880531311035,2.679713010787964,-1.0905472040176392
1682879850311910100,20.86491015625,-6.107583522796631,1.6505578756332397,0.022143865004181862
1682879850328779800,20.88177978515625,-6.738912582397461,0.06719517707824707,1.359480619430542
1682879850345638700,20.898638671875,-7.481266498565674,-1.570534586906433,2.5842654705047607
1682879850362514000,20.915513916015627,-8.131227493286133,-3.0106494426727295,3.4655911922454834
1682879850379392000,20.93239208984375,-8.652600288391113,-4.041484355926514,3.701232433319092
1682879850396263200,20.94926318359375,-9.001557350158691,-4.368144512176514,3.2841641902923584
1682879850413134300,20.96613427734375,-9.070280075073242,-4.132045269012451,2.5645649433135986
1682879850430002700,20.983002685546875,-9.0403470993042,-3.7420077323913574,2.0425806045532227
1682879850446879200,20.999879150390626,-9.132893562316895,-3.39717435836792,1.6757560968399048
1682879850463747800,21.016747802734375,-9.474367141723633,-3.1230485439300537,1.4543174505233765
1682879850480618800,21.03361865234375,-9.902889251708984,-2.6612343788146973,1.2110403776168823
1682879850497477600,21.0504775390625,-10.166783332824707,-2.1317670345306396,0.9094256162643433
1682879850514361600,21.067361572265625,-10.202977180480957,-1.9396498203277588,1.1090258359909058
1682879850531233300,21.0842333984375,-10.099282264709473,-1.9559905529022217,1.5544993877410889
1682879850548109600,21.101109619140626,-10.082942008972168,-1.9650007486343384,1.6661349534988403
1682879850564967000,21.117966796875,-9.927323341369629,-2.0916025638580322,1.6829338073730469
1682879850581847600,21.13484765625,-9.72253131866455,-2.314110279083252,1.9014707803726196
1682879850598720000,21.151719970703127,-9.75460147857666,-2.0807597637176514,1.9228510856628418
1682879850615578400,21.168578369140626,-9.656710624694824,-1.3747522830963135,2.101834535598755
1682879850632460300,21.185460205078126,-8.858920097351074,-1.3726142644882202,2.501645803451538
1682879850649331000,21.2023310546875,-6.994101524353027,-2.094198703765869,2.4155139923095703
1682879850666202400,21.219202392578126,-4.65173864364624,-1.814269781112671,1.1652255058288574
1682879850683073500,21.236073486328124,-2.685210943222046,-0.03726277872920036,-1.5735888481140137
1682879850699947800,21.25294775390625,-1.6423112154006958,2.295020818710327,-3.6833646297454834
1682879850716816000,21.26981591796875,-0.7606799602508545,2.5552492141723633,-2.814256191253662
1682879850733687600,21.2866875,0.8863654732704163,0.9213374853134155,-0.28237244486808777
1682879850750545400,21.30354541015625,2.6917777061462402,0.23747386038303375,1.1302534341812134
1682879850767432200,21.32043212890625,4.202142238616943,0.8495608568191528,0.8987354636192322
1682879850784301300,21.33730126953125,5.438991546630859,1.5526667833328247,0.2997821271419525
1682879850801172000,21.354171875,6.7682342529296875,1.6797267198562622,0.10231992602348328
1682879850818043100,21.371043212890626,8.050898551940918,1.4286611080169678,0.009010262787342072
1682879850834914600,21.38791455078125,8.590292930603027,0.9601274728775024,-0.07070764899253845
1682879850851785500,21.404785400390626,7.940790176391602,0.7707592248916626,-0.16584990918636322
1682879850868657000,21.421656982421876,6.662554740905762,1.3135130405426025,-0.7799221873283386
1682879850885520000,21.438519775390624,5.932876110076904,2.113135576248169,-1.9129245281219482
1682879850902399200,21.455399169921876,6.074291229248047,2.7597365379333496,-2.8579330444335938
1682879850919268400,21.472268310546873,6.531523704528809,3.1276299953460693,-3.1007518768310547
1682879850936144400,21.489144287109376,6.815881729125977,3.3483052253723145,-2.9106202125549316
