time,seconds_elapsed,z,y,x
1682880503206202000,0.1642021484375,1.8471879959106445,-0.2638390064239502,-0.20069193840026855
1682880503223075000,0.181074951171875,1.4973020553588867,-0.5616929531097412,1.4822704792022705
1682880503239946500,0.197946533203125,2.7858524322509766,-0.7107021808624268,1.8411191701889038
1682880503256821000,0.214821044921875,2.9306411743164062,-1.078481912612915,2.165328025817871
1682880503273680000,0.231679931640625,0.15610408782958984,0.28048157691955566,0.6792405843734741
1682880503290570500,0.248570556640625,-0.9478363990783691,0.8335897922515869,-0.19100582599639893
1682880503307443200,0.265443115234375,-1.8952507972717285,0.6192922592163086,-0.0057697296142578125
1682880503324313900,0.28231396484375,-2.3774185180664062,-0.013274192810058594,-0.14870750904083252
1682880503341193500,0.299193359375,-1.454556941986084,-0.9565026760101318,0.051433563232421875
1682880503358059500,0.3160595703125,0.23001861572265625,-1.0344104766845703,0.6673154830932617
1682880503374943000,0.33294287109375,0.0052776336669921875,-0.17255330085754395,0.5728986263275146
1682880503391808800,0.349808837890625,-0.30872154235839844,0.35419201850891113,0.2484431266784668
1682880503408685600,0.366685546875,-1.3418374061584473,-0.5487499237060547,-0.48925256729125977
1682880503425560800,0.383560791015625,-0.9657378196716309,-1.8299670219421387,-0.06942486763000488
1682880503442432300,0.400432373046875,0.023056983947753906,-1.0995934009552002,0.4383835792541504
1682880503459305500,0.417305419921875,0.3799872398376465,0.8115870952606201,0.8328051567077637
1682880503476180000,0.434179931640625,0.16846466064453125,0.8630962371826172,0.37816715240478516
1682880503493053000,0.451052978515625,0.7861804962158203,-0.7210268974304199,0.15421485900878906
1682880503509927000,0.467927001953125,4.249334812164307,-1.3541624546051025,0.13197660446166992
1682880503526788400,0.484788330078125,0.21950435638427734,-0.42839741706848145,1.6091551780700684
1682880503543675400,0.50167529296875,0.31403064727783203,1.174363374710083,1.546966552734375
1682880503560558000,0.51855810546875,-0.1723484992980957,0.4684147834777832,1.7638134956359863
1682880503577421000,0.535421142578125,-1.2132797241210938,0.008998394012451172,2.6197776794433594
1682880503594283800,0.55228369140625,-0.604954719543457,0.42668652534484863,2.3480448722839355
1682880503611168500,0.56916845703125,-0.4391322135925293,-0.3707125186920166,1.037736415863037
1682880503628041700,0.586041748046875,-0.09481048583984375,-0.5911726951599121,0.10324573516845703
1682880503644918500,0.60291845703125,0.022367477416992188,-0.08539533615112305,-1.1227917671203613
1682880503661786000,0.6197861328125,0.660914421081543,-0.12808632850646973,-0.823371410369873
1682880503678663200,0.6366630859375,0.23285150527954102,0.08415436744689941,-0.5957841873168945
1682880503695531800,0.65353173828125,-0.21677875518798828,0.6254923343658447,-0.5107922554016113
1682880503712410000,0.67041015625,0.16460227966308594,0.17886137962341309,0.4549674987792969
1682880503729283300,0.687283447265625,-0.6808528900146484,-0.01154947280883789,1.211709976196289
1682880503746157300,0.7041572265625,-0.23694658279418945,0.2942523956298828,1.1150212287902832
1682880503763030500,0.721030517578125,-0.24973201751708984,-0.6747260093688965,1.2041964530944824
1682880503779905000,0.737905029296875,-0.787388801574707,-0.5237343311309814,0.9566764831542969
1682880503796778000,0.754778076171875,-1.3270230293273926,-0.2565474510192871,0.7832412719726562
1682880503813651500,0.7716513671875,-0.41651201248168945,0.4346179962158203,1.682866096496582
1682880503830525200,0.788525146484375,-0.6514854431152344,1.2099740505218506,1.3487744331359863
1682880503847398700,0.805398681640625,-0.5168871879577637,1.7110216617584229,1.2570514678955078
1682880503864272000,0.82227197265625,-0.6232447624206543,0.8583672046661377,1.0215873718261719
1682880503881145000,0.83914501953125,-0.5668115615844727,0.8698148727416992,1.0800538063049316
1682880503898019300,0.856019287109375,-0.3459954261779785,1.0600464344024658,0.8992400169372559
1682880503914893300,0.872893310546875,-0.03607368469238281,0.3572351932525635,0.41985177993774414
1682880503931763500,0.889763427734375,-0.11732101440429688,0.02400517463684082,0.5786433219909668
1682880503948643300,0.906643310546875,-0.6902260780334473,0.3185725212097168,0.6190142631530762
1682880503965503500,0.92350341796875,-0.9634089469909668,0.3004794120788574,1.021876335144043
1682880503982389200,0.94038916015625,0.09254646301269531,-0.5754299163818359,1.4351797103881836
1682880503999261000,0.957260986328125,-0.2172565460205078,-0.18459630012512207,0.9048113822937012
1682880504016124400,0.97412451171875,-0.5348052978515625,0.12804675102233887,0.4146146774291992
1682880504033007900,0.9910078125,0.010528564453125,-0.33377277851104736,0.05482673645019531
1682880504049881900,1.0078818359375,-0.05562543869018555,-0.18587970733642578,-0.1208648681640625
1682880504066755300,1.02475537109375,-0.2817039489746094,0.6931685209274292,-0.6909537315368652
1682880504083629600,1.041629638671875,0.4194355010986328,0.5959895849227905,-0.9611163139343262
1682880504100502500,1.05850244140625,-0.22708749771118164,0.282936692237854,-0.8254690170288086
1682880504117376300,1.075376220703125,-0.9646725654602051,-0.21974194049835205,-0.436220645904541
1682880504134249700,1.092249755859375,-0.8759627342224121,-0.8189445734024048,0.07003927230834961
1682880504151123200,1.109123291015625,-0.09889411926269531,-1.3716750144958496,0.3420252799987793
1682880504167986000,1.12598583984375,-0.4779624938964844,-1.3827862739562988,0.46248388290405273
1682880504184871000,1.142870849609375,-0.8863954544067383,-0.5533169507980347,0.8016057014465332
1682880504201730800,1.159730712890625,-1.1020464897155762,0.04361891746520996,0.7943520545959473
1682880504218617900,1.176617919921875,-0.7074508666992188,-0.2850557565689087,0.5268759727478027
1682880504235479300,1.193479248046875,-0.5653934478759766,-0.5452091693878174,0.13321495056152344
1682880504252365300,1.210365234375,-0.7161016464233398,-0.9625569581985474,-0.04494142532348633
1682880504269239300,1.2272392578125,-0.7347378730773926,-1.4879930019378662,0.0397343635559082
1682880504286109400,1.244109375,-0.8065838813781738,-1.9251410961151123,0.13381147384643555
1682880504302988000,1.260988037109375,-1.4812965393066406,-1.8469176292419434,-0.24880027770996094
1682880504319859500,1.277859375,-1.3034868240356445,-1.6293095350265503,-0.38231563568115234
1682880504336734700,1.294734619140625,-1.5745620727539062,-1.1757166385650635,-1.2265567779541016
1682880504353596700,1.3115966796875,-1.9537029266357422,-1.064970850944519,-1.8120157718658447
1682880504370469000,1.32846923828125,-2.1173906326293945,-1.7042899131774902,-1.7996373176574707
1682880504387353600,1.345353515625,-1.698136806488037,-2.369284152984619,-2.2275521755218506
1682880504404229400,1.3622294921875,-1.7138547897338867,-3.546595573425293,-2.8793935775756836
1682880504421101000,1.37910107421875,-2.4558615684509277,-3.947406053543091,-2.298961877822876
1682880504437974000,1.39597412109375,-2.085951805114746,-3.119903564453125,-1.095482349395752
1682880504454848800,1.412848876953125,-1.4931998252868652,-3.3871378898620605,-0.9162149429321289
1682880504471718700,1.42971875,-0.05066251754760742,-4.214942932128906,-1.0815138816833496
1682880504488587300,1.446587158203125,0.28762388229370117,-3.6647019386291504,-0.976494312286377
1682880504505471000,1.463470947265625,0.25348854064941406,-1.2535653114318848,-0.947230339050293
1682880504522332000,1.480331787109375,-0.38632965087890625,-0.32572364807128906,-1.0044255256652832
1682880504539215600,1.497215576171875,-0.24274778366088867,-0.5249743461608887,-0.27263355255126953
1682880504556089900,1.51408984375,0.053188323974609375,-1.9069795608520508,0.13207340240478516
1682880504572960800,1.530960693359375,0.31987667083740234,-3.006667137145996,0.7212638854980469
1682880504589839000,1.547839111328125,0.7650003433227539,-3.519895553588867,1.6422085762023926
1682880504606710000,1.5647099609375,-0.2449631690979004,-2.709170341491699,2.475318431854248
1682880504623583700,1.581583740234375,-0.32000064849853516,-1.7664704322814941,2.9374327659606934
1682880504640457000,1.59845703125,-0.43091273307800293,-0.9735894203186035,3.104745864868164
1682880504657331200,1.615331298828125,-0.11669921875,-0.05265092849731445,3.1728858947753906
1682880504674204400,1.632204345703125,0.09117698669433594,-0.377133846282959,3.2445626258850098
1682880504691078400,1.649078369140625,0.20005416870117188,-1.3876395225524902,3.608302593231201
1682880504707951400,1.665951416015625,0.6320888996124268,-0.9548344612121582,3.6972336769104004
1682880504724825300,1.682825439453125,0.5484349727630615,0.041841983795166016,3.2058186531066895
1682880504741698300,1.6996982421875,0.09796309471130371,0.2695145606994629,3.34226131439209
1682880504758572300,1.716572265625,0.10807299613952637,-0.36847877502441406,3.3668370246887207
1682880504775440100,1.733440185546875,0.14211583137512207,-1.7575998306274414,3.1587023735046387
1682880504792319700,1.75031982421875,-0.001059412956237793,-0.682887077331543,3.743718147277832
1682880504809186300,1.767186279296875,0.18759644031524658,0.6806535720825195,4.083987712860107
1682880504826067000,1.78406689453125,-0.7541772723197937,2.4643611907958984,3.5172667503356934
1682880504842929400,1.800929443359375,-0.3663341999053955,3.4603872299194336,3.1757497787475586
1682880504859812400,1.817812255859375,-0.04972529411315918,2.7015018463134766,3.4708709716796875
1682880504876688600,1.834688720703125,-0.9597972631454468,0.9545893669128418,2.9038467407226562
1682880504893558500,1.85155859375,-1.3066279888153076,0.5056967735290527,1.9702997207641602
1682880504910436900,1.868436767578125,0.6738318204879761,0.8516201972961426,1.9430017471313477
1682880504927308300,1.885308349609375,0.718471348285675,1.3541579246520996,1.590500831604004
1682880504944181200,1.90218115234375,-0.1700199842453003,2.705385684967041,1.4349923133850098
1682880504961055200,1.91905517578125,-0.7338736057281494,0.5759987831115723,1.3957023620605469
1682880504977926000,1.93592578125,0.1637018918991089,0.7056260108947754,1.2989134788513184
1682880504994805000,1.952804931640625,1.5241656303405762,2.1681675910949707,0.4253115653991699
1682880505011673000,1.969673095703125,1.8294719457626343,4.132839202880859,-0.018477916717529297
1682880505028552400,1.986552490234375,1.6059989929199219,5.134222984313965,0.609954833984375
1682880505045422600,2.003422607421875,0.3120462894439697,4.822047233581543,1.5910429954528809
1682880505062297000,2.020297119140625,-0.4886929988861084,2.5169730186462402,2.4472246170043945
1682880505079169800,2.037169677734375,-0.3350639343261719,2.3105502128601074,2.9124155044555664
1682880505096033800,2.05403369140625,-0.7133281230926514,2.4357242584228516,2.39426851272583
1682880505112922600,2.070922607421875,-0.20601630210876465,2.3208112716674805,1.5173659324645996
1682880505129791200,2.087791259765625,0.786182165145874,1.7082600593566895,-0.27809762954711914
1682880505146671400,2.10467138671875,2.0458436012268066,0.8599948883056641,-2.3577609062194824
1682880505163538000,2.121537841796875,1.1446954011917114,0.20770263671875,-3.0862162113189697
1682880505180411400,2.138411376953125,0.24311232566833496,0.8452033996582031,-3.495514154434204
1682880505197285400,2.155285400390625,0.45989835262298584,-0.06984090805053711,-2.537069797515869
1682880505214158300,2.172158447265625,-1.048572301864624,0.09331226348876953,-0.8546438217163086
1682880505231018800,2.189018798828125,-1.8041635751724243,-1.583022117614746,0.39841747283935547
1682880505247900200,2.205900146484375,-2.9591097831726074,-2.078507423400879,1.2649774551391602
1682880505264782300,2.2227822265625,-3.548546075820923,-4.053992748260498,0.9473690986633301
1682880505281650000,2.23964990234375,-1.8705108165740967,-4.099725723266602,-0.2950439453125
1682880505298518800,2.256518798828125,-2.364706039428711,-2.5850954055786133,-1.0767664909362793
1682880505315399700,2.273399658203125,-2.317033290863037,0.628631591796875,-0.11108016967773438
1682880505332263400,2.290263427734375,-0.21555840969085693,0.7188658714294434,1.4943304061889648
1682880505349147000,2.30714697265625,2.386113166809082,0.6472868919372559,1.4806132316589355
1682880505366021000,2.324021240234375,1.8408139944076538,1.8701882362365723,0.2857704162597656
1682880505382883600,2.340883544921875,1.5509198904037476,1.4311728477478027,-0.7167692184448242
1682880505399768000,2.35776806640625,0.4829314947128296,1.739051342010498,-1.4767909049987793
1682880505416641300,2.374641357421875,-1.2654153108596802,0.41396284103393555,-1.9318137168884277
1682880505433515300,2.391515380859375,-0.8422850370407104,-4.129354000091553,-0.08491373062133789
1682880505450388200,2.40838818359375,-4.5431318283081055,-2.741724967956543,-2.31984281539917
1682880505467253800,2.425253662109375,-3.6900546550750732,1.887040615081787,-2.433058261871338
1682880505484133600,2.442133544921875,-1.5157288312911987,3.122316837310791,-0.3944435119628906
1682880505501009400,2.459009521484375,-0.5484536290168762,1.717780590057373,0.8247909545898438
1682880505517869300,2.475869384765625,1.277268886566162,-0.9370050430297852,2.672335147857666
1682880505534759400,2.492759521484375,3.81699538230896,0.3789081573486328,3.9079537391662598
1682880505551626800,2.509626708984375,2.6867971420288086,3.2167749404907227,0.7120213508605957
1682880505568503600,2.526503662109375,-1.5373533964157104,0.9161567687988281,-1.9331459999084473
1682880505585388000,2.543387939453125,0.4054619073867798,-2.3328609466552734,0.9080867767333984
1682880505602251000,2.5602509765625,-5.608441352844238,-0.23152637481689453,1.9647972583770752
1682880505619125500,2.57712548828125,-4.354597091674805,1.1766109466552734,2.2255983352661133
1682880505635993000,2.5939931640625,2.188077926635742,-0.6413583755493164,2.0496606826782227
1682880505652861000,2.61086083984375,3.9728479385375977,0.5004844665527344,1.4884426593780518
1682880505669745200,2.6277451171875,2.303873062133789,1.1976318359375,3.3446362018585205
1682880505686618000,2.6446181640625,3.461071729660034,3.4925713539123535,2.8720648288726807
1682880505703492400,2.661492431640625,-0.5318741202354431,7.448801040649414,1.4366493225097656
1682880505720348400,2.678348388671875,-2.673129081726074,6.7560834884643555,0.7432918548583984
1682880505737239000,2.695239013671875,-4.234994888305664,4.951781272888184,1.2318435907363892
1682880505754112500,2.712112548828125,-2.1853153705596924,6.981040954589844,1.779292106628418
1682880505770986800,2.72898681640625,-2.7928802967071533,7.416358470916748,0.7253859639167786
1682880505787859500,2.745859375,-1.6020081043243408,5.814118385314941,0.5810492038726807
1682880505804736000,2.762736083984375,-0.06915588676929474,-4.537310600280762,0.49953675270080566
1682880505821601500,2.7796015625,-1.9643441438674927,-18.072227478027344,-2.407853603363037
1682880505838483500,2.7964833984375,-0.4323723018169403,-19.543914794921875,-7.257388591766357
1682880505855353600,2.813353515625,1.6530970335006714,-12.336286544799805,-10.340331077575684
1682880505872224800,2.830224853515625,1.4203431606292725,-3.9859094619750977,-7.542324066162109
1682880505889103400,2.847103271484375,0.48685359954833984,0.8618736267089844,-2.7904019355773926
1682880505905975000,2.86397509765625,-0.033490538597106934,3.6459736824035645,-0.7278344631195068
1682880505922847700,2.88084765625,-0.532659113407135,5.240695476531982,0.1310862898826599
1682880505939722200,2.89772216796875,-0.8563846349716187,5.0281476974487305,0.44294118881225586
1682880505956595000,2.914594970703125,-1.6693236827850342,2.384143352508545,0.7574681639671326
1682880505973469400,2.931469482421875,-2.987334728240967,-1.2380142211914062,0.7953791618347168
1682880505990342000,2.948341796875,-2.4735472202301025,-2.7178869247436523,0.06010061502456665
1682880506007216000,2.965216064453125,-1.4772096872329712,-2.416656494140625,-0.4704134464263916
1682880506024089000,2.982089111328125,-0.9436563849449158,-1.5895261764526367,-0.6041268110275269
1682880506040963000,2.998963134765625,-0.663336992263794,-0.46794891357421875,-0.43689072132110596
1682880506057836300,3.015836181640625,-0.6226770877838135,0.6713085174560547,0.13377833366394043
1682880506074710300,3.032710205078125,-0.5571709871292114,0.9063100814819336,0.5304116010665894
1682880506091580700,3.04958056640625,-0.32669082283973694,0.5051250457763672,0.8065171241760254
1682880506108460500,3.06646044921875,-0.18512612581253052,-0.4284019470214844,0.8963133096694946
1682880506125330000,3.083329833984375,0.1671653687953949,-0.8350543975830078,1.108180046081543
1682880506142204400,3.100204345703125,0.00905570387840271,-0.952967643737793,1.5018670558929443
1682880506159078700,3.11707861328125,-0.15795323252677917,-0.8908166885375977,1.6008116006851196
1682880506175937800,3.133937744140625,0.3839038610458374,-0.554753303527832,1.6137580871582031
1682880506192827000,3.150826904296875,0.5277183651924133,-0.3211526870727539,1.743534803390503
1682880506209698600,3.167698486328125,0.43025898933410645,-0.15094470977783203,1.9298081398010254
1682880506226569000,3.18456884765625,0.1650252342224121,-0.10936450958251953,2.1251721382141113
1682880506243448600,3.201448486328125,0.09973198175430298,-0.17171001434326172,2.243685007095337
1682880506260318700,3.218318603515625,-0.030440181493759155,-0.1769399642944336,2.2143805027008057
1682880506277192700,3.235192626953125,-0.3376914858818054,-0.2408304214477539,1.9824786186218262
1682880506294066200,3.252066162109375,-0.7531381845474243,-0.36538124084472656,1.8683253526687622
1682880506310940200,3.268940185546875,-1.0240908861160278,-0.24692153930664062,1.7324529886245728
1682880506327812900,3.285812744140625,-1.2851238250732422,-0.23016738891601562,1.4899089336395264
1682880506344687400,3.302687255859375,-0.9571532011032104,-0.14984798431396484,1.2240633964538574
1682880506361557800,3.319557861328125,-0.637695848941803,-0.07584857940673828,1.0054128170013428
1682880506378436600,3.3364365234375,-0.42818668484687805,-0.1136331558227539,0.8467633724212646
1682880506395304400,3.353304443359375,-0.145506352186203,-0.24655437469482422,0.7138222455978394
1682880506412184000,3.37018408203125,-0.014637887477874756,-0.3933420181274414,0.5768897533416748
1682880506429043700,3.387043701171875,0.05286717414855957,-0.4260120391845703,0.486767053604126
1682880506445936600,3.4039365234375,0.03254130482673645,-0.3896465301513672,0.40851640701293945
1682880506462801700,3.4208017578125,-0.03218826651573181,-0.27437877655029297,0.3823580741882324
1682880506479675100,3.437675048828125,-0.13942599296569824,-0.10142040252685547,0.363922119140625
1682880506496546000,3.454546142578125,-0.23616883158683777,-0.10015010833740234,0.35952699184417725
1682880506513425000,3.4714248046875,-0.30692538619041443,-0.1854419708251953,0.3252980709075928
1682880506530295300,3.48829541015625,-0.29005923867225647,-0.2611207962036133,0.34142017364501953
1682880506547169500,3.50516943359375,-0.15594229102134705,-0.27022743225097656,0.4832378625869751
1682880506564042500,3.52204248046875,0.07274337857961655,-0.21685409545898438,0.7462489604949951
1682880506580916700,3.538916748046875,0.34581202268600464,-0.24982452392578125,1.0075150728225708
1682880506597789700,3.555789794921875,0.540328860282898,-0.3579883575439453,1.2743117809295654
1682880506614663700,3.57266357421875,0.6587558388710022,-0.4520912170410156,1.5449856519699097
1682880506631533800,3.589533935546875,0.7082697153091431,-0.6539421081542969,1.7571821212768555
1682880506648413200,3.6064130859375,0.6730625629425049,-0.8152065277099609,1.9646142721176147
1682880506665279200,3.623279296875,0.6021578311920166,-0.8447656631469727,2.2257614135742188
1682880506682157800,3.64015771484375,0.5024543404579163,-0.7656774520874023,2.5222439765930176
1682880506699031000,3.657031005859375,0.4190279543399811,-0.8382844924926758,2.8845434188842773
1682880506715894500,3.67389453125,0.3461168110370636,-0.7952785491943359,3.2630743980407715
1682880506732774700,3.690774658203125,0.20647065341472626,-0.44830322265625,3.3869705200195312
1682880506749655000,3.707655029296875,0.11265555024147034,-0.2806425094604492,3.4888975620269775
1682880506766525200,3.724525146484375,0.03832583129405975,-0.4146089553833008,3.3783206939697266
1682880506783399000,3.74139892578125,0.012484610080718994,-1.240774154663086,3.140049934387207
1682880506800270300,3.758270263671875,0.09717878699302673,-2.696822166442871,3.0333876609802246
1682880506817148000,3.77514794921875,0.09907478094100952,-3.4926795959472656,2.8382511138916016
1682880506834019300,3.792019287109375,-0.4092223644256592,-2.7469730377197266,2.5861432552337646
1682880506850893000,3.80889306640625,-1.2610340118408203,-0.9287443161010742,2.020845651626587
1682880506867766300,3.825766357421875,-1.3019297122955322,0.5808219909667969,1.2987675666809082
1682880506884640500,3.842640625,-0.7741619348526001,1.0755691528320312,0.4361553192138672
1682880506901511000,3.859510986328125,-0.6426277756690979,0.5665531158447266,-0.7605754137039185
1682880506918390000,3.87639013671875,-0.45054030418395996,-1.1943025588989258,-1.5069435834884644
1682880506935260400,3.893260498046875,0.11657583713531494,-2.8358535766601562,-2.03281307220459
1682880506952135000,3.910135009765625,-0.7433691620826721,-3.768549919128418,-2.2612221240997314
1682880506969007400,3.92700732421875,-2.3099300861358643,-2.7263317108154297,-2.343400478363037
1682880506985880000,3.943880126953125,-2.9888596534729004,-1.161468505859375,-2.1023709774017334
1682880507002755300,3.96075537109375,-4.23903751373291,-0.005885124206542969,-1.5478942394256592
1682880507019618300,3.977618408203125,-4.96623420715332,0.8356485366821289,-1.0557911396026611
1682880507036502000,3.994501953125,-4.232322692871094,1.0715742111206055,-1.0701298713684082
1682880507053375700,4.011375732421875,-0.900184690952301,0.7045221328735352,-2.1291861534118652
1682880507070249000,4.0282490234375,6.47773551940918,0.1720285415649414,-4.292091369628906
1682880507087120100,4.0451201171875,7.446660041809082,-0.4441041946411133,-5.59242582321167
1682880507103995600,4.06199560546875,2.5369532108306885,-0.18892383575439453,-6.020266056060791
1682880507120872700,4.078872802734375,-0.49250882863998413,0.5264596939086914,-6.082394123077393
1682880507137742600,4.09574267578125,0.7786321640014648,1.6133527755737305,-4.695905685424805
1682880507154616800,4.112616943359375,0.5075527429580688,1.9273324012756348,-2.9394006729125977
1682880507171490300,4.129490234375,-1.1187784671783447,1.4452829360961914,-1.4755399227142334
1682880507188363800,4.14636376953125,-1.607823371887207,0.6555376052856445,0.20048505067825317
1682880507205236700,4.16323681640625,-3.2295169830322266,0.02746295928955078,1.9529170989990234
1682880507222111000,4.180111083984375,-1.175844430923462,-0.9472513198852539,3.2427785396575928
1682880507238984000,4.19698388671875,4.428369045257568,-1.430617332458496,2.9714295864105225
1682880507255847700,4.21384765625,4.277175426483154,-0.6434822082519531,2.0184502601623535
1682880507272731400,4.2307314453125,1.7679487466812134,0.8135414123535156,0.9453370571136475
1682880507289605600,4.247605712890625,-0.9990891218185425,1.4828710556030273,0.21696992218494415
1682880507306481700,4.264481689453125,-0.9625541567802429,2.0438385009765625,-0.9183520078659058
1682880507323352000,4.28135205078125,1.1042709350585938,2.2174248695373535,-1.9720553159713745
1682880507340225300,4.298225341796875,-1.0997304916381836,2.1614785194396973,-2.815404176712036
1682880507357094400,4.315094482421875,-1.5934195518493652,1.6002998352050781,-3.487532615661621
1682880507373972200,4.33197216796875,-0.5275424718856812,0.9713897705078125,-3.649665355682373
1682880507390846500,4.348846435546875,-0.7161337733268738,0.8483476638793945,-3.0099854469299316
1682880507407708700,4.365708740234375,-1.348893165588379,0.7570295333862305,-1.6993415355682373
1682880507424593700,4.38259375,-0.8293120861053467,0.4439840316772461,-0.4242175221443176
1682880507441465300,4.39946533203125,-0.35825061798095703,-0.1862173080444336,0.6671634912490845
1682880507458328600,4.41632861328125,-0.04017457365989685,-1.2702255249023438,1.8785145282745361
1682880507475216000,4.4332158203125,1.2625069618225098,-1.7904443740844727,3.0634379386901855
1682880507492087600,4.450087646484375,1.0545291900634766,-1.1597566604614258,3.346742630004883
1682880507508950800,4.46695068359375,0.4213469326496124,0.19678401947021484,2.436943292617798
1682880507525824800,4.48382470703125,0.053441762924194336,0.7798290252685547,1.408857822418213
1682880507542695700,4.50069580078125,0.6782313585281372,0.4563150405883789,0.8552465438842773
1682880507559570200,4.517570068359375,0.4843517243862152,0.5288658142089844,0.40990155935287476
1682880507576446500,4.534446533203125,-0.8202210068702698,1.1591157913208008,-0.40083110332489014
1682880507593318000,4.55131787109375,1.479718804359436,-0.7515325546264648,-4.254547119140625
1682880507610201600,4.56820166015625,-3.444654703140259,-4.100908279418945,-6.868484973907471
1682880507627075600,4.58507568359375,-2.734780788421631,-2.011960029602051,-0.4909776449203491
1682880507643949000,4.601948974609375,-0.9683020710945129,-2.0812559127807617,4.736766338348389
1682880507660820000,4.618820068359375,-0.9901868104934692,-1.8844575881958008,7.194896697998047
1682880507677694200,4.635694091796875,3.134263753890991,1.4532928466796875,4.5493083000183105
1682880507694573800,4.65257373046875,1.8159680366516113,2.5127758979797363,1.1459717750549316
1682880507711453400,4.669453369140625,-1.1808388233184814,1.975954532623291,-1.958311915397644
1682880507728316000,4.68631591796875,-3.583376407623291,0.48127079010009766,-2.322181463241577
1682880507745190100,4.703190185546875,-3.123873710632324,0.2636251449584961,-2.134016990661621
1682880507762064000,4.72006396484375,-1.6493632793426514,-0.45066070556640625,-2.6928930282592773
1682880507778933000,4.73693310546875,-1.1368677616119385,-1.181814193725586,-3.109874963760376
1682880507795800300,4.75380029296875,-2.1491265296936035,-1.1790904998779297,-3.2210209369659424
1682880507812683800,4.770683837890625,-2.116603374481201,-0.5987997055053711,-2.977292060852051
1682880507829558000,4.78755810546875,-1.6506190299987793,0.17690563201904297,-2.400002956390381
1682880507846431000,4.804430908203125,-1.4590671062469482,1.0372343063354492,-2.0208072662353516
1682880507863305000,4.821304931640625,-1.6492195129394531,1.0931377410888672,-1.9762684106826782
1682880507880178400,4.838178466796875,-2.286947727203369,0.4843101501464844,-1.8724730014801025
1682880507897052200,4.85505224609375,-2.8511781692504883,0.04710960388183594,-1.4106687307357788
1682880507913925000,4.871925048828125,-3.3928005695343018,-0.03670787811279297,-0.7587407231330872
1682880507930798800,4.888798828125,-3.149723529815674,-0.011372566223144531,-0.27348846197128296
1682880507947664100,4.9056640625,-1.6696324348449707,0.1313457489013672,-0.001907646656036377
1682880507964546300,4.92254638671875,-1.0109890699386597,0.3481130599975586,0.07441574335098267
1682880507981419300,4.939419189453125,-0.4566534757614136,0.24763774871826172,0.01851809024810791
1682880507998293500,4.95629345703125,-0.05221909284591675,-0.11889266967773438,-0.050583481788635254
1682880508015166200,4.973166259765625,-0.03186577558517456,-0.45920276641845703,0.011251091957092285
1682880508032040400,4.99004052734375,-0.3419094681739807,-0.39528751373291016,0.2672271728515625
1682880508048913000,5.006912841796875,-0.7825700044631958,0.03431892395019531,0.556359052658081
1682880508065777400,5.02377734375,-0.819495677947998,0.435882568359375,0.8377594351768494
1682880508082647000,5.04064697265625,-0.8488918542861938,0.6535892486572266,1.0266600847244263
1682880508099537200,5.057537109375,-0.8254760503768921,0.3704233169555664,1.1924914121627808
1682880508116407600,5.074407470703125,-0.559188723564148,0.024947166442871094,1.4114038944244385
1682880508133281300,5.09128125,0.3585553765296936,-0.40457725524902344,1.704988718032837
1682880508150154200,5.108154296875,0.9235124588012695,-0.7639598846435547,1.962914228439331
1682880508167028200,5.1250283203125,0.6987203359603882,-1.0560846328735352,2.1858088970184326
1682880508183901700,5.141901611328125,0.10032510757446289,-1.1092519760131836,2.494638442993164
1682880508200776700,5.158776611328125,0.0031495094299316406,-0.8846263885498047,2.913850784301758
1682880508217647000,5.175647216796875,0.3724384307861328,-0.4961395263671875,3.2587318420410156
1682880508234523000,5.19252294921875,0.8746753931045532,-0.023095130920410156,3.4713096618652344
1682880508251393300,5.209393310546875,1.2559094429016113,0.02144622802734375,3.4998812675476074
1682880508268271600,5.226271728515625,1.1844778060913086,-0.2939739227294922,3.3625547885894775
1682880508285132000,5.243132080078125,0.8022615909576416,-0.8276882171630859,3.1444904804229736
1682880508302006300,5.26000634765625,0.7345843315124512,-1.8664064407348633,2.9017083644866943
1682880508318887200,5.27688720703125,0.8561651706695557,-2.613767623901367,2.8582406044006348
1682880508335755800,5.293755859375,0.7786321640014648,-2.999826431274414,3.0070343017578125
1682880508352637000,5.310636962890625,0.37239623069763184,-2.726475715637207,2.7404987812042236
1682880508369510700,5.3275107421875,0.34646284580230713,-3.919485092163086,2.550253391265869
1682880508386372900,5.344372802734375,0.4856663942337036,-3.9382095336914062,2.5476698875427246
1682880508403260000,5.361260009765625,0.39670419692993164,-4.634788513183594,2.4894216060638428
1682880508420131600,5.378131591796875,1.4301036596298218,-5.418137550354004,2.434783697128296
1682880508437005000,5.395005126953125,2.1799185276031494,-2.9088258743286133,2.6892800331115723
1682880508453878000,5.4118779296875,3.2426745891571045,0.24137115478515625,1.1568753719329834
1682880508470752000,5.428751953125,4.056443214416504,2.3418712615966797,-1.3781719207763672
1682880508487625000,5.445625,2.7944447994232178,-0.01715373992919922,-1.6719050407409668
1682880508504488400,5.462488525390625,0.19777807593345642,-1.8219079971313477,-1.327771544456482
1682880508521367800,5.479367919921875,-0.7577291131019592,-2.87294864654541,-1.732156753540039
1682880508538246100,5.49624609375,-0.7526241540908813,-3.5699195861816406,-2.4603357315063477
1682880508555119000,5.513119140625,-1.3880642652511597,-3.39199161529541,-3.0700454711914062
1682880508571991000,5.529990966796875,-1.5165815353393555,-1.4246091842651367,-3.260021209716797
1682880508588865300,5.546865234375,-0.9281915426254272,0.4790687561035156,-3.373966693878174
1682880508605733600,5.563733642578125,-0.4012751579284668,1.6345281600952148,-3.128446578979492
1682880508622613000,5.580613037109375,-0.7695121169090271,2.3208956718444824,-2.7978904247283936
1682880508639487000,5.597487060546875,-1.7365833520889282,3.0157852172851562,-2.1755757331848145
1682880508656360000,5.61435986328125,-2.582210063934326,3.5486717224121094,-1.774763584136963
1682880508673234400,5.631234375,-2.7209367752075195,3.7710351943969727,-1.6443898677825928
1682880508690091800,5.648091796875,-2.747614622116089,3.9491658210754395,-2.222327470779419
1682880508706985700,5.66498583984375,-1.8327913284301758,3.903602123260498,-3.041471004486084
1682880508723854000,5.68185400390625,-0.09277665615081787,3.3895316123962402,-3.3824610710144043
1682880508740728000,5.69872802734375,0.3404679298400879,3.220480442047119,-3.1748340129852295
1682880508757601500,5.7156015625,-0.03201937675476074,3.3209776878356934,-2.279416561126709
1682880508774475300,5.732475341796875,0.4081266522407532,2.4395265579223633,-1.1280958652496338
1682880508791348000,5.749347900390625,2.121718168258667,0.3053722381591797,0.013990487903356552
1682880508808222200,5.76622216796875,3.781869888305664,-2.0506067276000977,1.2732144594192505
1682880508825095400,5.783095458984375,4.969055652618408,-3.1954345703125,3.0599701404571533
1682880508841969200,5.79996923828125,4.466788291931152,-3.9623727798461914,4.4879865646362305
1682880508858831600,5.81683154296875,0.9378139972686768,-4.271629333496094,4.899177074432373
1682880508875719700,5.8337197265625,-1.4454126358032227,-3.2154788970947266,4.625927448272705
1682880508892589300,5.85058935546875,-0.7271441221237183,-0.04211616516113281,3.646639823913574
1682880508909463600,5.867463623046875,0.6060745716094971,3.348038673400879,0.19274121522903442
1682880508926334200,5.884334228515625,0.9310030937194824,1.753115177154541,-2.6099677085876465
1682880508943212500,5.901212646484375,0.08409035205841064,-3.683596611022949,-4.960832595825195
1682880508960080600,5.91808056640625,2.6892340183258057,-7.547830581665039,-6.523299694061279
1682880508976960000,5.9349599609375,-2.346581220626831,-8.29370403289795,-4.090059280395508
1682880508993827800,5.951827880859375,-3.6452693939208984,-2.400341033935547,-0.6540950536727905
1682880509010707000,5.96870703125,-2.76806640625,1.4938268661499023,-1.33209228515625
1682880509027574800,5.98557470703125,-1.2141368389129639,4.057464122772217,-1.083101749420166
1682880509044455400,6.002455322265625,-2.7820916175842285,5.08534049987793,-1.4645823240280151
1682880509061323000,6.019322998046875,-3.0923938751220703,4.31740140914917,-1.3998937606811523
1682880509078198500,6.036198486328125,-3.4010462760925293,1.0399456024169922,-1.6424782276153564
1682880509095084000,6.053083984375,-4.246589660644531,-2.385195732116699,-2.1717493534088135
1682880509111945700,6.06994580078125,-4.549234867095947,-4.212698936462402,-2.3531367778778076
1682880509128818700,6.086818603515625,-4.292451858520508,-2.5249691009521484,-1.7026642560958862
1682880509145682700,6.1036826171875,-3.1069254875183105,-0.2110118865966797,-0.664108157157898
1682880509162564000,6.120564208984375,-2.3634862899780273,1.1678953170776367,0.06211662292480469
1682880509179441400,6.13744140625,-1.9931875467300415,1.7236990928649902,0.6631115674972534
1682880509196312600,6.1543125,-2.18369197845459,1.6490468978881836,1.0581382513046265
1682880509213184300,6.171184326171875,-2.2912309169769287,0.9169654846191406,0.9552953243255615
1682880509230062000,6.18806201171875,-2.513688087463379,0.13454055786132812,0.7608879804611206
1682880509246932500,6.204932373046875,-2.5845510959625244,-0.09128189086914062,0.706449031829834
1682880509263805400,6.221805419921875,-2.224483013153076,0.07513618469238281,0.7844099998474121
1682880509280683500,6.23868359375,-1.5384823083877563,0.31459522247314453,0.7277733087539673
1682880509297553400,6.255553466796875,-0.957244873046875,0.21319198608398438,0.6267755031585693
1682880509314424800,6.2724248046875,-0.3410643935203552,0.12511062622070312,0.6311044692993164
1682880509331306200,6.28930615234375,0.24378612637519836,-0.10144519805908203,0.7466788291931152
1682880509348171500,6.306171630859375,0.6483325958251953,-0.24593067169189453,0.8198577165603638
1682880509365047800,6.3230478515625,0.7048032283782959,-0.18986034393310547,0.8587732315063477
1682880509381922300,6.33992236328125,0.7922561764717102,-0.1389751434326172,0.8970052003860474
1682880509398795000,6.356794921875,0.9637377262115479,-0.3202829360961914,0.8702952861785889
1682880509415666700,6.373666748046875,1.7681810855865479,-0.17003631591796875,0.7887890338897705
1682880509432541700,6.390541748046875,1.2476344108581543,-0.7765111923217773,2.191169261932373
1682880509449427500,6.407427490234375,0.5303993821144104,-0.7039937973022461,3.092085599899292
1682880509466288600,6.42428857421875,1.361067533493042,0.30455493927001953,2.899278163909912
1682880509483163100,6.4411630859375,2.8150932788848877,-0.18918609619140625,3.040407657623291
1682880509500035800,6.458035888671875,2.74025297164917,-2.017728805541992,3.0061981678009033
1682880509516910000,6.47491015625,0.8448007106781006,-3.645432472229004,2.8409440517425537
1682880509533783000,6.491782958984375,0.008415594696998596,-5.775385856628418,2.961305856704712
1682880509550656500,6.508656494140625,0.6504218578338623,-8.304034233093262,3.8847804069519043
1682880509567529700,6.52552978515625,-0.19810886681079865,-8.374582290649414,4.8353095054626465
1682880509584404000,6.542404052734375,-1.9329309463500977,-7.141768455505371,6.788113594055176
1682880509601274400,6.5592744140625,-0.3517196774482727,-2.503284454345703,6.115044593811035
1682880509618153500,6.576153564453125,1.224626898765564,1.05511474609375,3.864652633666992
1682880509635024100,6.593024169921875,0.3929779529571533,1.4109430313110352,2.7860517501831055
1682880509651898000,6.609898193359375,-3.6284897327423096,0.5453834533691406,1.566338062286377
1682880509668770600,6.6267705078125,-5.237550735473633,-1.8643159866333008,0.39850306510925293
1682880509685638100,6.64363818359375,-6.248695373535156,-4.928887367248535,-0.9802274703979492
1682880509702518000,6.66051806640625,-6.922737121582031,-8.120903015136719,-1.6329874992370605
1682880509719392000,6.67739208984375,-5.017616271972656,-9.442423820495605,-1.4686163663864136
1682880509736265000,6.694264892578125,-2.4387831687927246,-5.122742652893066,-0.5604021549224854
1682880509753139200,6.71113916015625,-4.848006248474121,-1.4845218658447266,0.6784025430679321
1682880509770012000,6.728011962890625,-8.650792121887207,0.02089405059814453,0.751008152961731
1682880509786885400,6.744885498046875,-9.053966522216797,1.5317645072937012,0.6933896541595459
1682880509803758800,6.7617587890625,-8.45849609375,3.0711312294006348,0.3927203416824341
1682880509820646700,6.778646728515625,-7.680038928985596,4.690516471862793,-1.1545376777648926
1682880509837506000,6.795506103515625,-5.585487365722656,4.302865505218506,-1.6914211511611938
1682880509854380000,6.812380126953125,-4.021419525146484,3.082808017730713,-2.400301456451416
1682880509871252500,6.82925244140625,-2.4179372787475586,2.3070807456970215,-3.203245162963867
1682880509888127200,6.846127197265625,-0.6211695671081543,2.0119638442993164,-3.9573800563812256
1682880509904999700,6.862999755859375,-1.3043326139450073,1.391798973083496,-4.009090423583984
1682880509921864000,6.879864013671875,-1.169529914855957,1.3687686920166016,-4.390187740325928
1682880509938747100,6.8967470703125,1.2341744899749756,1.5282115936279297,-5.177027225494385
1682880509955606800,6.913606689453125,4.358996391296387,0.44762229919433594,-7.139887809753418
1682880509972493800,6.930493896484375,1.9594577550888062,-3.1276607513427734,-6.2127685546875
1682880509989368000,6.9473681640625,-2.3982319831848145,-2.8650598526000977,-0.652133047580719
1682880510006241000,6.964240966796875,-2.6045491695404053,-2.1183528900146484,2.2685770988464355
1682880510023115000,6.981114990234375,-1.5014556646347046,-2.4409303665161133,2.5396289825439453
1682880510039987700,6.99798779296875,-0.328624963760376,-2.343149185180664,2.5125527381896973
1682880510056862200,7.0148623046875,0.1858731508255005,-0.9804544448852539,2.8779449462890625
1682880510073735000,7.03173486328125,-0.2109835147857666,0.37969112396240234,3.7508580684661865
1682880510090609200,7.048609130859375,-0.8393880128860474,1.1382732391357422,3.251533031463623
1682880510107481900,7.06548193359375,-0.6706423759460449,-2.480741500854492,0.3168262243270874
1682880510124355800,7.08235595703125,-0.11236751079559326,-9.736305236816406,-0.23958730697631836
1682880510141225700,7.099225830078125,-0.6116670966148376,-6.185696601867676,2.300161361694336
1682880510158105300,7.116105224609375,0.5397344827651978,0.819737434387207,1.4247697591781616
1682880510174976000,7.13297607421875,-1.3583459854125977,2.8356738090515137,-0.6411542892456055
1682880510191851800,7.149851806640625,-1.5295944213867188,3.6165456771850586,-2.7241873741149902
1682880510208721700,7.1667216796875,-1.8123304843902588,3.0480241775512695,-2.09796142578125
1682880510225597000,7.183596923828125,-1.3217439651489258,2.3185930252075195,-1.855100393295288
1682880510242470000,7.200469970703125,-1.2462681531906128,1.338033676147461,-2.2891945838928223
1682880510259344000,7.21734375,-2.624621868133545,0.19181060791015625,-3.1130118370056152
1682880510276206600,7.23420654296875,-4.025299072265625,-1.5458593368530273,-3.6515278816223145
1682880510293091300,7.25109130859375,-4.537345886230469,-2.986133575439453,-3.4970951080322266
1682880510309964300,7.26796435546875,-2.105715751647949,-1.7010841369628906,-1.9947667121887207
1682880510326838300,7.28483837890625,-1.2640430927276611,0.6083164215087891,-0.9634329676628113
1682880510343711200,7.301711181640625,-1.3644537925720215,2.1862969398498535,-0.192183256149292
1682880510360585500,7.31858544921875,-1.3980557918548584,2.6348981857299805,0.49978262186050415
1682880510377458200,7.335458251953125,-1.696527361869812,2.3443984985351562,0.897797167301178
1682880510394332000,7.352331787109375,-2.779543399810791,1.4639511108398438,0.7432280778884888
1682880510411205000,7.369205078125,-3.6782352924346924,0.9945650100708008,0.37406623363494873
1682880510428079400,7.386079345703125,-3.1768908500671387,0.4774303436279297,0.5760246515274048
1682880510444952300,7.402952392578125,-2.009222984313965,0.014334678649902344,0.9735628366470337
1682880510461826300,7.419826416015625,-1.3202462196350098,-0.2744150161743164,1.0938441753387451
1682880510478689800,7.436689697265625,-0.8742619752883911,-0.20267868041992188,1.1391315460205078
1682880510495572500,7.453572509765625,-0.5340697765350342,-0.21100711822509766,0.974200963973999
1682880510512446500,7.470446533203125,-0.2400091290473938,-0.6916704177856445,0.9959503412246704
1682880510529320200,7.4873203125,0.015432357788085938,-1.5597963333129883,1.1413559913635254
1682880510546190600,7.504190673828125,0.16299200057983398,-2.179905891418457,1.408372163772583
1682880510563070000,7.521070068359375,0.2895960807800293,-2.0022668838500977,1.699613332748413
1682880510579940000,7.537940185546875,0.6462528705596924,-1.4676074981689453,2.2343969345092773
1682880510596814300,7.554814453125,1.7294824123382568,-1.7597675323486328,3.159730911254883
1682880510613687000,7.57168701171875,2.751716375350952,-2.479909896850586,3.7602179050445557
1682880510630557400,7.588557373046875,8.656062126159668,-4.613045692443848,5.197689056396484
1682880510647434200,7.605434326171875,3.7763524055480957,-3.9499874114990234,3.862961769104004
1682880510664308500,7.62230859375,2.022334337234497,-5.606566429138184,3.6460812091827393
1682880510681181200,7.63918115234375,3.884007453918457,-7.991540908813477,5.22879695892334
1682880510698055400,7.656055419921875,2.747006416320801,-7.471756935119629,6.118221759796143
1682880510714928000,7.67292822265625,1.9342129230499268,-2.5618104934692383,5.278876781463623
1682880510731799300,7.68979931640625,0.609724760055542,1.3845419883728027,3.3784074783325195
1682880510748672800,7.7066728515625,-0.6263023018836975,1.9028606414794922,1.5631210803985596
1682880510765549300,7.72354931640625,-0.5229740738868713,0.49936676025390625,-0.5507147312164307
1682880510782422500,7.740422607421875,-1.9914137125015259,-1.4324769973754883,-1.5911602973937988
1682880510799296300,7.757296142578125,-2.2139532566070557,-4.068910598754883,-2.3244895935058594
1682880510816169500,7.77416943359375,-1.7654449939727783,-6.951645851135254,-3.1408708095550537
1682880510833043200,7.791043212890625,-1.7832045555114746,-7.375713348388672,-3.503971815109253
1682880510849916200,7.807916259765625,-2.9312543869018555,-3.302016258239746,-4.419836521148682
1682880510866790100,7.8247900390625,-3.798521041870117,0.10566139221191406,-4.785330772399902
1682880510883663400,7.841663330078125,-3.253288984298706,2.0250096321105957,-4.595872402191162
1682880510900537300,7.858537353515625,-2.204845428466797,3.4408459663391113,-4.182453632354736
1682880510917410600,7.87541064453125,-1.406322717666626,4.198602199554443,-3.5103883743286133
1682880510934284300,7.8922841796875,-1.3056206703186035,4.878040313720703,-2.9806113243103027
1682880510951157000,7.909156982421875,-1.1248492002487183,4.688977241516113,-2.522709846496582
1682880510968031000,7.926031005859375,-0.8866914510726929,4.522346496582031,-2.35154390335083
1682880510984916000,7.942916015625,-0.9555836319923401,4.838177680969238,-2.981724262237549
1682880511001778700,7.95977880859375,-0.3828210234642029,5.469963550567627,-4.429693698883057
1682880511018651400,7.9766513671875,-0.16514423489570618,5.270108699798584,-5.1512298583984375
1682880511035533300,7.993533203125,-0.5104488730430603,3.748692035675049,-5.033158779144287
1682880511052392000,8.010391845703126,0.8592058420181274,1.135366439819336,-4.400646209716797
1682880511069272300,8.027272216796876,2.783951759338379,-1.9293794631958008,-3.431976795196533
1682880511086145300,8.044145263671876,0.9632316827774048,-4.7150421142578125,-0.8070443272590637
1682880511103008800,8.0610087890625,-2.494211196899414,-6.023138046264648,2.77302885055542
1682880511119892500,8.077892578125,-2.6615753173828125,-5.528295516967773,3.835012435913086
1682880511136766500,8.094766357421875,1.865765929222107,-5.431386947631836,5.327043533325195
1682880511153627000,8.111626953125,7.642292022705078,-4.77163028717041,5.74124002456665
1682880511170513200,8.12851318359375,5.807405948638916,-2.9280176162719727,5.748940467834473
1682880511187386000,8.14538623046875,1.843385934829712,-0.5070724487304688,5.906959056854248
1682880511204249900,8.162249755859374,1.5246694087982178,2.6982078552246094,3.8702187538146973
1682880511221133300,8.17913330078125,3.010547637939453,1.1167583465576172,-2.821715831756592
1682880511238007300,8.19600732421875,1.3697381019592285,-3.7142562866210938,-4.043734073638916
1682880511254880300,8.21288037109375,2.1293370723724365,-5.735082626342773,-2.7505006790161133
1682880511271751700,8.229751708984375,-0.14549067616462708,-3.729673385620117,-1.6172873973846436
1682880511288629800,8.246629638671875,-2.6434214115142822,0.17133426666259766,-1.546799659729004
1682880511305491000,8.263490966796875,-2.180391311645508,3.8376193046569824,-2.1680092811584473
1682880511322371300,8.280371337890625,-1.8242993354797363,4.137601375579834,-2.3385519981384277
1682880511339251500,8.29725146484375,-1.0293653011322021,3.1009511947631836,-2.697683811187744
1682880511356121300,8.314121337890626,-0.9565880298614502,0.9537563323974609,-3.4213156700134277
1682880511372995600,8.33099560546875,-1.652780532836914,-0.7873706817626953,-4.311537742614746
1682880511389865700,8.34786572265625,-2.822434902191162,-2.033802032470703,-4.858860015869141
1682880511406745000,8.3647451171875,-3.808239459991455,-1.752089500427246,-4.265163898468018
1682880511423615000,8.381614990234375,-3.2359251976013184,0.5160055160522461,-3.0898942947387695
1682880511440489200,8.3984892578125,-2.3145904541015625,2.01351261138916,-2.230523109436035
1682880511457362200,8.415362060546874,-1.653691053390503,2.366448402404785,-1.667715311050415
1682880511474236400,8.432236328125,-1.3054656982421875,2.2046995162963867,-1.3145498037338257
1682880511491109400,8.449109375,-1.5734446048736572,0.9643192291259766,-1.3392877578735352
1682880511507983000,8.465983154296875,-1.7368741035461426,-0.15655136108398438,-1.2448375225067139
1682880511524856000,8.48285595703125,-1.282944679260254,-0.6283245086669922,-0.7774614095687866
1682880511541730000,8.49972998046875,-0.7265586853027344,-0.6694374084472656,-0.15881097316741943
1682880511558603000,8.51660302734375,-0.2584332227706909,-0.5007743835449219,0.27007973194122314
1682880511575472000,8.53347216796875,0.08041763305664062,-0.2603340148925781,0.5170916318893433
1682880511592337400,8.55033740234375,0.3173586130142212,-0.16640663146972656,0.7267928123474121
1682880511609217300,8.56721728515625,0.5095006823539734,-0.4344930648803711,0.8264942169189453
1682880511626099700,8.584099609375,0.7221665978431702,-0.7928237915039062,1.2236238718032837
1682880511642971400,8.600971435546874,0.7557491064071655,-0.9353504180908203,1.8088864088058472
1682880511659841500,8.617841552734374,0.7055314183235168,-0.8375997543334961,2.352935314178467
1682880511676720600,8.634720703125,0.7447729110717773,-0.4240398406982422,2.7560043334960938
1682880511693591600,8.651591552734375,0.8900858163833618,0.19339370727539062,3.1789591312408447
1682880511710465300,8.66846533203125,1.2978119850158691,0.7192268371582031,3.6138837337493896
1682880511727338200,8.685338134765624,1.2874481678009033,0.2312612533569336,3.9209375381469727
1682880511744209700,8.702209716796874,0.7215791344642639,-1.2034626007080078,4.257781505584717
1682880511761088000,8.719087890625,0.28843510150909424,-2.375598907470703,4.215809345245361
1682880511777956600,8.73595654296875,1.0394084453582764,-2.963973045349121,3.7510366439819336
1682880511794834700,8.752834716796874,1.2456178665161133,-3.0015735626220703,3.622847080230713
1682880511811704300,8.769704345703126,1.091417670249939,-3.280191421508789,3.335549831390381
1682880511828581600,8.78658154296875,0.9851463437080383,-4.71428108215332,2.9719719886779785
1682880511845439200,8.803439208984376,0.9362062215805054,-5.139161109924316,3.425199270248413
1682880511862315300,8.820315185546875,1.2199593782424927,-5.42220401763916,3.7783970832824707
1682880511879200300,8.8372001953125,2.0042130947113037,-4.958832740783691,4.7917256355285645
1682880511896074800,8.85407470703125,13.215408325195312,-2.544950485229492,5.5863447189331055
1682880511912947200,8.870947265625,13.23805046081543,1.532045841217041,2.774026393890381
1682880511929820200,8.887820068359375,3.5773754119873047,2.382835865020752,0.5382981300354004
1682880511946694100,8.904694091796875,-1.3299628496170044,1.3696303367614746,-0.2758297920227051
1682880511963567000,8.921567138671875,-1.6745696067810059,-1.4031400680541992,-0.5955309867858887
1682880511980441300,8.93844140625,-2.1476311683654785,-5.381430625915527,-1.071714997291565
1682880511997314300,8.955314208984374,-2.1052310466766357,-6.713229179382324,-1.9723087549209595
1682880512014185500,8.972185546875,-1.9614192247390747,-5.472848892211914,-2.9182143211364746
1682880512031063600,8.9890634765625,-2.1421446800231934,-2.6340150833129883,-3.542584180831909
1682880512047935200,9.005935302734375,-1.131810188293457,0.20805931091308594,-3.5447452068328857
1682880512064808200,9.02280810546875,-0.23630261421203613,2.3305225372314453,-3.5791244506835938
1682880512081685500,9.039685546875,-1.1446747779846191,3.7368712425231934,-3.355454921722412
1682880512098552000,9.056552001953126,-1.7620396614074707,4.352615833282471,-2.7896697521209717
1682880512115429400,9.073429443359375,-2.2254526615142822,4.467240333557129,-2.433004379272461
1682880512132302000,9.090302001953125,-2.487083911895752,4.356131076812744,-2.7099883556365967
1682880512149175800,9.10717578125,-2.002509117126465,4.175680160522461,-3.1706950664520264
1682880512166049300,9.12404931640625,-0.7556533217430115,3.6274471282958984,-3.3851330280303955
1682880512182923300,9.14092333984375,0.5799193382263184,3.200138568878174,-3.4290103912353516
1682880512199796200,9.157796142578125,0.6779407858848572,3.2757668495178223,-3.21252703666687
1682880512216668000,9.17466796875,0.7161315083503723,3.0075206756591797,-2.494107484817505
1682880512233543200,9.191543212890625,1.6514499187469482,1.4298334121704102,-1.6021323204040527
1682880512250417000,9.2084169921875,2.9596710205078125,-1.7142248153686523,-0.18960988521575928
1682880512267289900,9.225289794921874,3.0253114700317383,-4.546496391296387,2.156095027923584
1682880512284153600,9.242153564453124,4.284411430358887,-4.984875679016113,4.509588718414307
1682880512301037300,9.259037353515625,5.198264122009277,-4.428717613220215,5.646794319152832
1682880512317911000,9.2759111328125,2.4812798500061035,-3.3978118896484375,5.857391357421875
1682880512334773500,9.2927734375,-1.3134377002716064,-2.2448015213012695,5.22349214553833
1682880512351655700,9.30965576171875,-2.021712303161621,1.5727005004882812,2.5585312843322754
1682880512368533500,9.326533447265625,0.20295226573944092,3.7616119384765625,-0.32625746726989746
1682880512385391600,9.3433916015625,0.3196312189102173,0.7305488586425781,-3.136347770690918
1682880512402278100,9.360278076171875,1.5708351135253906,-4.389659881591797,-4.598073482513428
1682880512419152100,9.377152099609376,1.78009831905365,-7.1849565505981445,-4.775967597961426
1682880512436014600,9.3940146484375,-3.2230634689331055,-6.2197723388671875,0.4268629252910614
1682880512452899000,9.410899169921874,-1.7715063095092773,0.6223373413085938,1.5729289054870605
1682880512469772300,9.427772216796875,0.5151033401489258,3.543635845184326,1.2942302227020264
1682880512486649600,9.444649658203126,-0.31455904245376587,4.504055976867676,-0.17464685440063477
1682880512503519000,9.46151904296875,-2.284097671508789,3.5628623962402344,-0.9761940240859985
1682880512520393200,9.478393310546876,-2.4985768795013428,1.7972311973571777,-0.9306027889251709
1682880512537266000,9.495265869140624,-2.452993631362915,-0.0961313247680664,-1.0861753225326538
1682880512554129400,9.51212939453125,-2.831090211868286,-1.6248149871826172,-1.3155044317245483
1682880512571013000,9.52901318359375,-2.1721346378326416,-1.9288864135742188,-1.741328239440918
1682880512587886800,9.545886962890625,-1.8405940532684326,-1.336155891418457,-1.0688058137893677
1682880512604759800,9.562759765625,-2.0061111450195312,0.07074642181396484,0.06893587112426758
1682880512621631200,9.57963134765625,-1.888524055480957,0.9929876327514648,0.7312949895858765
1682880512638509300,9.59650927734375,-1.4437313079833984,0.859156608581543,0.934241771697998
1682880512655380700,9.613380615234375,-1.1911247968673706,0.3656349182128906,1.113867998123169
1682880512672254200,9.630254150390625,-1.7204595804214478,0.026971817016601562,1.1883671283721924
1682880512689128000,9.6471279296875,-2.6182851791381836,0.35498809814453125,0.8706338405609131
1682880512705998300,9.663998291015625,-3.0755527019500732,1.0788040161132812,0.5959968566894531
1682880512722877400,9.68087744140625,-2.57062029838562,1.6685600280761719,0.5232269763946533
1682880512739747600,9.69774755859375,-1.9525177478790283,1.4767460823059082,0.5801663398742676
1682880512756622000,9.7146220703125,-1.3088443279266357,0.5485944747924805,0.7388248443603516
1682880512773495000,9.7314951171875,-0.6571294069290161,0.07769775390625,0.6833536624908447
1682880512790368800,9.74836865234375,-0.12305501848459244,-0.29207420349121094,0.6852940320968628
1682880512807231200,9.765231201171876,0.42094266414642334,-0.5530223846435547,0.7957797050476074
1682880512824116200,9.7821162109375,0.8394975662231445,-0.3663158416748047,0.8877625465393066
1682880512840988700,9.79898876953125,1.0230118036270142,0.05215644836425781,0.8778911828994751
1682880512857862700,9.815862548828125,1.0661685466766357,0.3217172622680664,0.9323538541793823
1682880512874736000,9.832736083984376,1.1039124727249146,0.20023345947265625,0.9130555391311646
1682880512891607000,9.84960693359375,1.0247161388397217,-0.15613651275634766,0.7844126224517822
1682880512908494800,9.866494873046875,0.7470159530639648,-0.7098913192749023,0.775925874710083
1682880512925357000,9.883357177734375,0.49259281158447266,-1.298335075378418,0.9244029521942139
1682880512942227200,9.900227294921875,0.38106393814086914,-1.9473285675048828,1.3382937908172607
1682880512959106000,9.91710595703125,0.5906752347946167,-2.4903573989868164,1.5302051305770874
1682880512975966200,9.93396630859375,0.85246342420578,-2.7971811294555664,1.7374682426452637
1682880512992851000,9.950850830078124,0.7899954915046692,-3.7721471786499023,2.1680240631103516
1682880513009720800,9.967720947265626,1.252249002456665,-5.805643081665039,2.7088489532470703
1682880513026600200,9.98460009765625,4.7750654220581055,-8.121842384338379,4.051244258880615
1682880513043470000,10.001469970703125,5.17384147644043,-9.169103622436523,5.472858905792236
1682880513060345600,10.018345703125,1.990838646888733,-6.337017059326172,7.460317134857178
1682880513077217500,10.035217529296874,1.5717540979385376,1.2587714195251465,4.925061225891113
1682880513094091800,10.052091796875,3.1421852111816406,3.829540252685547,3.300201892852783
1682880513110964700,10.06896484375,2.55438232421875,2.193955898284912,2.7020108699798584
1682880513127838700,10.085838623046875,-1.8796584606170654,1.415945053100586,0.4043700695037842
1682880513144712000,10.1027119140625,-3.5802721977233887,-0.532750129699707,-0.3035006523132324
1682880513161583400,10.119583251953125,-4.310296058654785,-3.6932811737060547,-1.1919856071472168
1682880513178461200,10.136461181640625,-4.923696994781494,-6.172205924987793,-1.8291488885879517
1682880513195332600,10.15333251953125,-4.768701553344727,-6.888941764831543,-2.019534111022949
1682880513212205300,10.170205322265625,-4.143311977386475,-3.523106575012207,-2.323273181915283
1682880513229079600,10.18707958984375,-2.663337230682373,1.327301025390625,-2.337918758392334
1682880513245942500,10.203942626953125,-2.812659978866577,3.4124770164489746,-1.9385639429092407
1682880513262826800,10.22082666015625,-4.176153182983398,3.78403377532959,-1.7666984796524048
1682880513279699700,10.23769970703125,-4.991980075836182,3.726670265197754,-1.6169757843017578
1682880513296573700,10.25457373046875,-3.8803365230560303,3.0970096588134766,-1.044311285018921
1682880513313446400,10.2714462890625,-2.4941999912261963,2.3458151817321777,-0.7645905613899231
1682880513330320400,10.2883203125,-1.841408610343933,2.9428939819335938,-1.8517093658447266
1682880513347182800,10.305182861328126,-0.7251365780830383,3.473686695098877,-2.7091989517211914
1682880513364067600,10.322067626953125,0.3395920991897583,3.7925262451171875,-3.3201169967651367
1682880513380940500,10.3389404296875,0.6414074897766113,3.4788599014282227,-3.584850788116455
1682880513397814500,10.355814453125,1.3926935195922852,2.420928955078125,-4.223055839538574
1682880513414687500,10.3726875,3.3211185932159424,-0.2703895568847656,-5.069188594818115
1682880513431558700,10.38955859375,5.215660572052002,-3.3351173400878906,-4.118626594543457
1682880513448426500,10.406426513671875,2.8872389793395996,-4.321438789367676,-1.0010645389556885
1682880513465308700,10.42330859375,1.2519549131393433,-5.09880256652832,2.327515125274658
1682880513482181600,10.440181640625,2.275409460067749,-5.386545181274414,3.9018657207489014
1682880513499055400,10.457055419921875,2.4577620029449463,-4.543417930603027,4.258841514587402
1682880513515917800,10.473917724609375,-0.7201507091522217,-2.568516731262207,4.517093658447266
1682880513532802300,10.49080224609375,-2.084873914718628,-0.5528926849365234,5.759740352630615
1682880513549675300,10.50767529296875,-1.1841135025024414,1.9501276016235352,5.570165634155273
1682880513566538800,10.524538818359375,1.3263493776321411,2.63679838180542,0.4974064826965332
1682880513583422700,10.541422607421875,1.315560221672058,-1.5200939178466797,-1.9717326164245605
1682880513600296200,10.558296142578126,0.19058379530906677,-4.1687517166137695,-0.005015254020690918
1682880513617160700,10.57516064453125,0.7037340998649597,-2.49118709564209,0.6724611520767212
1682880513634043400,10.59204345703125,-0.3514411151409149,-0.3684101104736328,-0.7860921621322632
1682880513650916000,10.608916015625,-0.405183345079422,1.822737693786621,-2.6567256450653076
1682880513667780000,10.625780029296875,-1.8899258375167847,2.885714530944824,-2.539128541946411
1682880513684663300,10.642663330078125,-1.6888850927352905,2.32073974609375,-1.768263339996338
1682880513701534500,10.659534423828125,-1.248931884765625,1.545480728149414,-1.9316868782043457
1682880513718412800,10.676412841796875,-1.1316410303115845,0.7578582763671875,-2.6942903995513916
1682880513735281700,10.69328173828125,-2.462340831756592,-0.3687400817871094,-3.4847493171691895
1682880513752160000,10.710159912109376,-4.628741264343262,-1.8366899490356445,-3.852656364440918
1682880513769031000,10.727031005859375,-2.842210531234741,-2.023648262023926,-2.5148966312408447
1682880513785911300,10.743911376953125,-1.3319127559661865,0.02132892608642578,-1.5074912309646606
1682880513802767600,10.760767578125,-0.7168468236923218,1.5158443450927734,-1.1479204893112183
1682880513819651000,10.777651123046875,-0.6846181154251099,1.664632797241211,-0.668193519115448
1682880513836525300,10.794525390625,-0.8867506980895996,0.9377841949462891,-0.20624816417694092
1682880513853398300,10.811398193359375,-2.0014233589172363,0.41940784454345703,0.04455256462097168
1682880513870272000,10.82827197265625,-2.6287596225738525,0.5922069549560547,-0.23354291915893555
1682880513887145000,10.84514501953125,-2.5353169441223145,0.7336101531982422,-0.11582458019256592
1682880513904019000,10.86201904296875,-1.4777005910873413,0.7359600067138672,0.3143116235733032
1682880513920892000,10.878891845703125,-0.9235391616821289,0.7703237533569336,0.5077179670333862
1682880513937755400,10.89575537109375,-0.740645170211792,0.5681037902832031,0.5634121894836426
1682880513954639400,10.912639404296876,-0.5533661842346191,0.1070566177368164,0.6656100749969482
1682880513971511800,10.92951171875,-0.19590575993061066,-0.2873420715332031,0.7876075506210327
1682880513988386800,10.94638671875,0.06669396162033081,-0.4093751907348633,0.771120548248291
1682880514005259800,10.963259765625,0.3159444034099579,-0.44531917572021484,0.7290201187133789
1682880514022132700,10.9801328125,0.5038196444511414,-0.30005455017089844,0.7603448629379272
1682880514039006700,10.9970068359375,0.6607567071914673,-0.1934976577758789,0.9770876169204712
1682880514055869200,11.013869140625,0.7287960052490234,-0.2724752426147461,1.3259499073028564
1682880514072753700,11.030753662109374,0.7697122693061829,-0.7037181854248047,1.6908618211746216
1682880514089624300,11.047624267578126,0.9034073948860168,-1.3375511169433594,1.9475816488265991
1682880514106503400,11.06450341796875,1.2855428457260132,-2.1284866333007812,2.027270555496216
1682880514123373600,11.08137353515625,1.8354156017303467,-2.7801103591918945,2.154153347015381
1682880514140247600,11.09824755859375,1.9348764419555664,-2.8779258728027344,2.5259742736816406
1682880514157121000,11.11512109375,1.6520967483520508,-4.251016616821289,2.667250633239746
1682880514173994800,11.131994873046875,2.2931315898895264,-5.524012565612793,3.5576999187469482
1682880514190856400,11.1488564453125,4.957220077514648,-6.985429763793945,4.276266098022461
1682880514207742500,11.165742431640625,4.642809867858887,-6.826883316040039,4.883747577667236
1682880514224614700,11.18261474609375,1.46377694606781,-3.8629989624023438,5.421969413757324
1682880514241485800,11.19948583984375,2.2873587608337402,1.8050975799560547,4.3736701011657715
1682880514258364200,11.2163642578125,2.3429672718048096,5.145743370056152,1.833892822265625
1682880514275236000,11.233236083984375,2.948249101638794,3.5521254539489746,0.6135811805725098
1682880514292106200,11.250106201171874,-0.33566200733184814,0.45377445220947266,-0.3808255195617676
1682880514308984600,11.266984619140626,-2.4189083576202393,-1.8822240829467773,-1.3272671699523926
1682880514325845000,11.283844970703125,-2.8092336654663086,-4.2915239334106445,-2.299950361251831
1682880514342729700,11.300729736328124,-2.4052140712738037,-6.007793426513672,-2.8784022331237793
1682880514359602400,11.3176025390625,-2.196928024291992,-5.287646293640137,-2.9403600692749023
1682880514376476400,11.334476318359375,-2.6227481365203857,-1.424896240234375,-4.113391876220703
1682880514393349400,11.351349365234375,-2.2623238563537598,1.1671733856201172,-4.471214294433594
1682880514410223600,11.3682236328125,-2.129551887512207,2.568154811859131,-4.29132080078125
1682880514427096300,11.385096435546876,-1.0218558311462402,2.8975634574890137,-3.48226261138916
1682880514443968000,11.401968017578126,-0.3201296329498291,3.0349855422973633,-2.5592710971832275
1682880514460846000,11.41884619140625,0.6273123621940613,2.796685218811035,-1.851100206375122
1682880514477717200,11.43571728515625,1.194608449935913,2.3668718338012695,-1.6282105445861816
1682880514494590200,11.452590087890625,1.3918638229370117,2.521170139312744,-2.1532509326934814
1682880514511460000,11.469460205078125,1.4811854362487793,2.9386258125305176,-2.983534336090088
1682880514528341800,11.486341796875,1.3627926111221313,2.906184196472168,-3.3891990184783936
1682880514545211400,11.50321142578125,0.9889239072799683,2.183744430541992,-3.320119857788086
1682880514562086100,11.520086181640625,0.5446043014526367,1.7027006149291992,-2.6983489990234375
1682880514578956300,11.536956298828125,-0.11060184240341187,1.533543586730957,-1.6400610208511353
1682880514595820500,11.553820556640625,-1.4592492580413818,1.3654241561889648,-0.6867607831954956
1682880514612705000,11.570705078125,-2.1978790760040283,0.7355594635009766,0.13353301584720612
1682880514629567200,11.587567138671876,-1.6553431749343872,-0.5634889602661133,0.7227528095245361
1682880514646452200,11.6044521484375,0.3592483699321747,-1.7199773788452148,1.1796505451202393
1682880514663325400,11.621325439453125,3.7911834716796875,-2.7761964797973633,2.241657257080078
1682880514680199200,11.63819921875,5.732141971588135,-3.2255859375,2.9838080406188965
1682880514697072000,11.655072021484376,5.151681900024414,-3.3552684783935547,3.778937339782715
1682880514713945900,11.67194580078125,3.3784677982330322,-2.3941450119018555,4.170774936676025
1682880514730818600,11.688818603515625,2.6657509803771973,-0.49088191986083984,3.440925359725952
1682880514747684900,11.705684814453125,1.5528416633605957,1.4838590621948242,0.8958867788314819
1682880514764566300,11.722566162109375,0.6187635064125061,1.0615663528442383,-1.2328095436096191
1682880514781440000,11.73943994140625,0.3461449146270752,-3.1606216430664062,-4.418713569641113
1682880514798300000,11.7562998046875,2.8564047813415527,-6.933009147644043,-5.8176727294921875
1682880514815180000,11.773179931640625,2.650280714035034,-6.050810813903809,-4.792023181915283
1682880514832047600,11.790047607421876,-1.8016273975372314,-2.766521453857422,-1.6737067699432373
1682880514848917200,11.806917236328125,-2.481215000152588,1.4559831619262695,-0.29209810495376587
1682880514865796000,11.823796142578125,-0.9038445353507996,4.221782684326172,-0.03191804885864258
1682880514882669000,11.8406689453125,-0.4974059462547302,6.0007829666137695,-0.677759051322937
1682880514899553500,11.857553466796874,-0.981662392616272,5.9412946701049805,-1.641701579093933
1682880514916427800,11.874427734375,-0.49983125925064087,3.9506711959838867,-2.1549429893493652
1682880514933300700,11.89130078125,-0.6990966796875,0.36567211151123047,-3.1363136768341064
1682880514950174500,11.908174560546875,-1.4289629459381104,-3.2882328033447266,-4.294028282165527
1682880514967037000,11.925036865234375,-2.368629217147827,-4.839338302612305,-4.483527183532715
1682880514983921400,11.94192138671875,-1.6847354173660278,-2.5043249130249023,-2.898197889328003
1682880515000794400,11.95879443359375,-0.5477991700172424,0.7907266616821289,-1.1177746057510376
1682880515017668600,11.975668701171875,-0.2398550808429718,2.476569652557373,-0.5933932065963745
1682880515034541600,11.99254150390625,-0.16541382670402527,2.23787260055542,-0.5073409080505371
1682880515051412000,12.009411865234375,-0.24174316227436066,0.5032052993774414,-0.3639742136001587
1682880515068291600,12.02629150390625,-0.7040034532546997,-1.6256418228149414,-0.059433698654174805
1682880515085162200,12.043162353515624,-1.0166739225387573,-2.7144622802734375,0.5018265247344971
1682880515102035200,12.06003515625,-0.8036180734634399,-1.559072494506836,1.0194969177246094
1682880515118910500,12.076910400390625,-0.4501408338546753,-0.04903221130371094,1.2771464586257935
1682880515135770600,12.0937705078125,0.08158117532730103,0.7177038192749023,1.6276929378509521
1682880515152656400,12.110656494140626,0.46989190578460693,0.8587579727172852,2.006486415863037
1682880515169529300,12.127529296875,0.40905851125717163,0.7395915985107422,2.537346124649048
1682880515186403300,12.1444033203125,0.10096865892410278,0.6850996017456055,3.281038284301758
1682880515203276000,12.161276123046875,0.32165592908859253,-0.027437210083007812,3.4956090450286865
1682880515220150300,12.178150390625,0.07415328919887543,-0.3875913619995117,3.475383996963501
1682880515237023200,12.195023193359376,-0.23054689168930054,-0.2537870407104492,3.3853759765625
1682880515253897000,12.21189697265625,-0.2632736563682556,-0.07654953002929688,2.9483089447021484
1682880515270770200,12.228770263671874,-0.2670609951019287,0.2797126770019531,2.304018497467041
1682880515287644000,12.245643798828125,-0.11098170280456543,0.34712696075439453,1.9808708429336548
1682880515304516900,12.262516845703125,0.06648659706115723,0.2457447052001953,1.811356782913208
1682880515321380900,12.279380859375,0.2230607271194458,0.1673450469970703,1.7737348079681396
1682880515338263600,12.296263671875,0.5153909921646118,-0.05195426940917969,1.8278616666793823
1682880515355137800,12.3131376953125,0.797134280204773,-0.22911453247070312,1.74441659450531
1682880515372009700,12.330009765625,1.0289385318756104,-0.6299152374267578,1.6207669973373413
1682880515388886000,12.346885986328125,1.0700781345367432,-0.9767560958862305,1.425635576248169
1682880515405747200,12.363747314453125,0.5964162349700928,-1.44244384765625,1.3435949087142944
1682880515422628900,12.38062890625,-0.11756771802902222,-1.8223800659179688,1.3969331979751587
1682880515439507200,12.397507080078125,-0.7590734362602234,-1.5988340377807617,1.6746083498001099
1682880515456379000,12.41437890625,-0.23515206575393677,-1.829305648803711,1.8299274444580078
1682880515473249000,12.4312490234375,1.158390998840332,-2.797883987426758,1.8764292001724243
1682880515490128400,12.44812841796875,2.2387351989746094,-3.9191150665283203,1.9887382984161377
1682880515506998500,12.46499853515625,3.268015146255493,-5.225823402404785,1.8339581489562988
1682880515523872800,12.481872802734374,4.74371862411499,-5.150625228881836,1.6611748933792114
1682880515540745200,12.4987451171875,1.1788475513458252,-3.68337345123291,2.320664882659912
1682880515557619200,12.515619140625,4.03267240524292,-1.0514535903930664,3.685343027114868
1682880515574474200,12.53247412109375,10.59273624420166,4.5724711418151855,0.9437477588653564
1682880515591366700,12.54936669921875,8.9939546585083,1.567309856414795,-0.4984860420227051
1682880515608239400,12.5662392578125,2.1498889923095703,-2.206653594970703,-1.385777235031128
1682880515625113600,12.583113525390624,-1.2733153104782104,-3.12322998046875,-1.9077218770980835
1682880515641986600,12.599986572265625,-3.2277188301086426,-3.8921594619750977,-2.591083288192749
1682880515658860000,12.616860107421875,-4.240814685821533,-3.783745765686035,-3.1870102882385254
1682880515675722500,12.633722412109375,-3.871581554412842,-2.3425979614257812,-3.591228485107422
1682880515692607200,12.650607177734376,-1.381514549255371,-0.5592613220214844,-3.247343063354492
1682880515709480200,12.667480224609376,0.13022637367248535,1.2356815338134766,-3.54141902923584
1682880515726354200,12.684354248046875,-0.3017960786819458,2.341007709503174,-2.8020143508911133
1682880515743227600,12.7012275390625,-0.49620047211647034,2.6577539443969727,-1.5734038352966309
1682880515760101000,12.71810107421875,-0.438806414604187,2.8807311058044434,-1.1812047958374023
1682880515776974000,12.73497412109375,0.9140738248825073,3.2351627349853516,-1.1667149066925049
1682880515793847800,12.751847900390626,2.071009874343872,2.846480369567871,-1.8455554246902466
1682880515810721000,12.768720947265624,1.7799172401428223,1.7121953964233398,-2.6199278831481934
1682880515827594800,12.7855947265625,0.45494362711906433,1.3644475936889648,-2.9196040630340576
1682880515844468000,12.802468017578125,-0.5745935440063477,2.6188716888427734,-2.9146997928619385
1682880515861342200,12.81934228515625,-1.0641756057739258,3.7653965950012207,-2.8212971687316895
1682880515878214700,12.836214599609375,-0.8058403730392456,3.829568386077881,-2.6175642013549805
1682880515895088600,12.853088623046874,-0.5443763136863708,3.5921401977539062,-2.0487656593322754
1682880515911961600,12.869961669921874,-0.13150188326835632,2.8299007415771484,-0.9979328513145447
1682880515928835600,12.886835693359375,0.6202117204666138,1.744044303894043,-0.21202486753463745
1682880515945710600,12.903710693359375,1.7653017044067383,-0.17737770080566406,0.3377033472061157
1682880515962582800,12.920582763671876,1.8206435441970825,-2.506279945373535,1.152122139930725
1682880515979445800,12.93744580078125,1.557464599609375,-4.194375038146973,2.31085467338562
1682880515996329700,12.954329833984374,4.550532817840576,-5.220888137817383,3.60906982421875
1682880516013202400,12.971202392578125,6.9243903160095215,-4.728002548217773,4.7591400146484375
1682880516030076200,12.988076171875,4.431229591369629,-2.9328222274780273,5.189299583435059
1682880516046949400,13.004949462890625,2.352074384689331,-1.1909961700439453,5.196968078613281
1682880516063823600,13.02182373046875,1.3038911819458008,2.258241653442383,2.265699625015259
1682880516080697600,13.038697509765624,1.1617438793182373,0.15727519989013672,-2.2425713539123535
1682880516097570600,13.055570556640625,1.3347291946411133,-3.539947509765625,-4.813145160675049
1682880516114443000,13.072443115234375,1.5736188888549805,-4.6260986328125,-4.505198001861572
1682880516131316000,13.08931591796875,-0.0604684054851532,-3.68880558013916,-3.237334966659546
1682880516148191700,13.106191650390626,-2.884692668914795,-2.0152435302734375,-1.3958730697631836
1682880516165064200,13.123064208984376,-2.472841262817383,0.6323909759521484,-0.6917209625244141
1682880516181937000,13.13993701171875,-1.7093396186828613,3.3150758743286133,-0.2745720148086548
1682880516198811100,13.15681103515625,-0.18531441688537598,4.6676716804504395,0.027048230171203613
1682880516215666400,13.17366650390625,-0.6067092418670654,5.265336513519287,-0.9935656785964966
1682880516232557800,13.190557861328125,-0.5345830917358398,3.206846237182617,-1.1583462953567505
1682880516249430500,13.207430419921875,-0.6205464005470276,0.21609878540039062,-1.7010109424591064
1682880516266296300,13.22429638671875,-0.8956193923950195,-2.953777313232422,-2.3393216133117676
1682880516283177700,13.241177734375,-0.9708876609802246,-4.033933639526367,-2.176748514175415
1682880516300052000,13.258052001953125,-0.6620458364486694,-1.3282575607299805,-1.4304276704788208
1682880516316925000,13.274925048828125,-0.7805439233779907,1.6424875259399414,-1.455870270729065
1682880516333798700,13.291798583984376,-0.9763501882553101,2.4212703704833984,-1.402215838432312
1682880516350671400,13.30867138671875,-0.8678305149078369,1.3446979522705078,-1.0952991247177124
1682880516367549200,13.325549072265625,-0.4719037413597107,-0.10393333435058594,-0.842842698097229
1682880516384418300,13.342418212890625,-0.6527245044708252,-0.5516872406005859,-0.7404458522796631
1682880516401290000,13.3592900390625,-0.7524250149726868,0.0475921630859375,-0.6826821565628052
1682880516418168300,13.376168212890626,-0.579315185546875,0.906132698059082,-0.5228574275970459
1682880516435039200,13.393039306640626,-0.301501989364624,1.2102460861206055,-0.3601776361465454
1682880516451912400,13.409912353515624,-0.4197796583175659,0.7176170349121094,-0.23020458221435547
1682880516468786000,13.426785888671875,-0.5980647802352905,0.12888336181640625,-0.06558048725128174
1682880516485665800,13.443665771484374,-0.7340977787971497,-0.06654739379882812,0.16290414333343506
1682880516502521300,13.460521240234375,-0.6501364707946777,0.03843498229980469,0.41250085830688477
1682880516519408400,13.477408447265624,-0.4274994730949402,0.25285911560058594,0.645591139793396
1682880516536280000,13.494280029296876,-0.2786373496055603,0.17700767517089844,0.8245799541473389
1682880516553153300,13.5111533203125,-0.18515849113464355,0.044178009033203125,1.0552000999450684
1682880516570027300,13.52802734375,0.11961790919303894,-0.07181262969970703,1.3109382390975952
1682880516586900000,13.54489990234375,0.5051883459091187,-0.1711711883544922,1.5261112451553345
1682880516603773700,13.561773681640625,0.7251394987106323,-0.6213655471801758,1.651036262512207
1682880516620653300,13.5786533203125,0.8474227786064148,-1.0207452774047852,1.6858069896697998
1682880516637521000,13.59552099609375,0.8770963549613953,-0.8378372192382812,1.7349900007247925
1682880516654392300,13.612392333984374,0.8413636684417725,-0.3678913116455078,1.8894253969192505
1682880516671266800,13.629266845703125,0.7518469095230103,-0.1622905731201172,2.1318445205688477
1682880516688143400,13.646143310546876,0.7158079147338867,-0.26375389099121094,2.4582936763763428
1682880516705002200,13.663002197265625,0.735832929611206,-0.46620845794677734,2.7876598834991455
1682880516721889800,13.679889892578124,0.670516312122345,-0.8696346282958984,3.015615463256836
1682880516738761500,13.696761474609374,0.4180842638015747,-1.3417091369628906,3.22706937789917
1682880516755622400,13.713622314453126,0.410882830619812,-1.9593944549560547,3.342169761657715
1682880516772508700,13.7305087890625,1.0340352058410645,-3.5759878158569336,3.274153470993042
1682880516789381000,13.747381103515625,1.314674973487854,-5.049890518188477,3.240446090698242
1682880516806255400,13.76425537109375,1.4434200525283813,-6.369513511657715,2.7200558185577393
1682880516823128000,13.781128173828124,1.111512541770935,-6.3968915939331055,1.80918288230896
1682880516840001800,13.798001708984375,0.8693810105323792,-4.746628761291504,2.579345226287842
1682880516856875300,13.814875244140625,0.3405672311782837,-1.4100236892700195,1.9782218933105469
1682880516873749200,13.831749267578125,6.249136447906494,1.4466700553894043,2.6593289375305176
1682880516890622000,13.8486220703125,17.0042667388916,5.466000080108643,-0.34313035011291504
1682880516907493400,13.865493408203125,7.179718017578125,3.277346611022949,-1.1828265190124512
1682880516924353000,13.88235302734375,0.53956139087677,-0.7376480102539062,-0.5353217124938965
1682880516941248000,13.899248046875,-0.9546432495117188,-2.982381820678711,-0.8206946849822998
1682880516958113300,13.91611328125,-2.8627049922943115,-4.218975067138672,-1.829385757446289
1682880516974989800,13.93298974609375,-4.483828544616699,-4.587453842163086,-2.757164239883423
1682880516991860200,13.949860107421875,-3.161651611328125,-2.479170799255371,-3.2189977169036865
1682880517008739000,13.966739013671875,-1.0824401378631592,0.053559303283691406,-3.0368192195892334
1682880517025606400,13.9836064453125,-0.3049335479736328,1.901181697845459,-2.5269763469696045
1682880517042483700,14.000483642578125,-0.4553331136703491,2.8176803588867188,-2.0361452102661133
1682880517059356200,14.017356201171875,-1.4911173582077026,3.3305587768554688,-1.6434377431869507
1682880517076230700,14.034230712890626,-2.4756765365600586,3.4871811866760254,-1.2265632152557373
1682880517093103600,14.051103515625,-2.6607213020324707,3.1644716262817383,-0.8727091550827026
1682880517109977300,14.067977294921874,-2.00561785697937,2.9609055519104004,-1.1742098331451416
1682880517126850300,14.084850341796875,-0.8973305225372314,2.822864055633545,-1.9050910472869873
1682880517143723300,14.10172314453125,0.5973155498504639,2.3249502182006836,-2.3262648582458496
1682880517160597800,14.11859765625,1.1469080448150635,2.2862548828125,-2.7219014167785645
1682880517177471200,14.13547119140625,0.6899077296257019,2.480410575866699,-2.7007813453674316
1682880517194346800,14.1523466796875,0.4789665937423706,2.3088064193725586,-1.9895607233047485
1682880517211204000,14.1692041015625,0.7001627683639526,1.3541879653930664,-0.9767035245895386
1682880517228091000,14.1860908203125,1.0155539512634277,-0.0892171859741211,0.10520195960998535
1682880517244964900,14.20296484375,0.9250028133392334,-1.5197019577026367,1.2048639059066772
1682880517261835000,14.2198349609375,0.49195215106010437,-2.733220100402832,2.456629514694214
1682880517278714400,14.23671435546875,1.5495400428771973,-3.049496650695801,3.518566846847534
1682880517295584500,14.25358447265625,5.058832168579102,-3.239682197570801,4.085893154144287
1682880517312458500,14.27045849609375,5.822622776031494,-2.573650360107422,4.462259769439697
1682880517329331500,14.28733154296875,3.481722354888916,-1.6901836395263672,4.825509548187256
1682880517346205400,14.304205322265625,0.6706822514533997,-0.7322854995727539,3.019005298614502
1682880517363078100,14.321078125,1.2096083164215088,-2.7836008071899414,-1.2390626668930054
1682880517379952600,14.33795263671875,1.862433671951294,-4.548455238342285,-2.7696433067321777
1682880517396824800,14.354824951171874,2.8433003425598145,-3.840951919555664,-2.610509157180786
1682880517413699000,14.371698974609375,3.5203049182891846,-2.2679738998413086,-2.640603542327881
1682880517430571800,14.38857177734375,0.6719011068344116,-1.1773252487182617,-2.4939446449279785
1682880517447446000,14.405446044921876,-4.029874801635742,0.22948265075683594,-1.5634782314300537
1682880517464319000,14.422319091796876,-3.8395931720733643,2.0537476539611816,-1.0875751972198486
1682880517481193200,14.439193115234374,-2.2341365814208984,3.6132712364196777,-0.6676658391952515
1682880517498065700,14.456065673828125,-1.2752525806427002,4.20577335357666,-0.4182422161102295
1682880517514940000,14.47293994140625,-0.31134551763534546,2.8104605674743652,-0.6474215984344482
1682880517531809800,14.489809814453125,0.4941871166229248,0.03211498260498047,-1.30958890914917
1682880517548689200,14.506689208984374,0.36801743507385254,-2.159648895263672,-2.080580711364746
1682880517565559600,14.5235595703125,-0.8385855555534363,-2.1599597930908203,-1.8522337675094604
1682880517582433800,14.540433837890625,-2.340291976928711,0.1296672821044922,-1.1568399667739868
1682880517599306500,14.557306396484375,-3.0324792861938477,1.7566771507263184,-0.8904105424880981
1682880517616180500,14.574180419921875,-2.386730670928955,2.1472959518432617,-0.9569778442382812
1682880517633053700,14.5910537109375,-2.0019092559814453,1.4361190795898438,-1.118269920349121
1682880517649916700,14.607916748046875,-2.5234172344207764,0.2322683334350586,-1.3476563692092896
1682880517666800000,14.624800048828124,-3.181851387023926,-0.43292713165283203,-1.6005136966705322
1682880517683674400,14.64167431640625,-3.1924781799316406,0.012950897216796875,-1.7920434474945068
1682880517700547300,14.65854736328125,-2.4417476654052734,0.6169795989990234,-1.7216709852218628
1682880517717421000,14.675421142578125,-1.725111961364746,0.6799602508544922,-1.5174275636672974
1682880517734294300,14.692294189453126,-1.442370057106018,0.15470409393310547,-1.4077810049057007
1682880517751167700,14.709167724609374,-1.3234913349151611,-0.33337974548339844,-1.3638811111450195
1682880517768040700,14.726040771484374,-0.9796031713485718,-0.5937404632568359,-1.1828466653823853
1682880517784916200,14.742916259765625,-0.536679744720459,-0.5458660125732422,-0.8817660808563232
1682880517801786000,14.7597861328125,-0.1652391254901886,-0.19611454010009766,-0.6668127775192261
1682880517818661600,14.77666162109375,0.07510339468717575,-0.03424644470214844,-0.5034430027008057
1682880517835533000,14.793532958984375,0.267586350440979,-0.22218799591064453,-0.31988048553466797
1682880517852408300,14.810408203125,0.4012911319732666,-0.44034290313720703,-0.08909368515014648
1682880517869281300,14.82728125,0.47680628299713135,-0.5349445343017578,0.1643301248550415
1682880517886153000,14.844153076171875,0.6067643165588379,-0.5017490386962891,0.3481687307357788
1682880517903030800,14.86103076171875,0.7637311220169067,-0.4784736633300781,0.45683276653289795
1682880517919902200,14.877902099609376,0.855961799621582,-0.5283956527709961,0.6039718389511108
1682880517936772900,14.89477294921875,0.8742399215698242,-0.4688386917114258,0.8181157112121582
1682880517953652000,14.91165185546875,0.7982944846153259,-0.481597900390625,1.0954560041427612
1682880517970521900,14.92852197265625,0.6263894438743591,-0.5816659927368164,1.3553831577301025
1682880517987383000,14.945383056640624,0.41631555557250977,-0.7042341232299805,1.6501519680023193
1682880518004262700,14.9622626953125,0.24740362167358398,-0.7626304626464844,1.9466835260391235
1682880518021144600,14.97914453125,0.07565504312515259,-0.8203811645507812,2.265148639678955
1682880518038016000,14.99601611328125,-0.17927521467208862,-0.9400186538696289,2.6215758323669434
1682880518054889700,15.0128896484375,-1.654985785484314,-0.2138509750366211,3.178901433944702
1682880518071760100,15.029760009765624,-1.936431884765625,0.9281387329101562,3.676568031311035
1682880518088641800,15.046641845703125,-0.8335319757461548,1.2088570594787598,3.978076934814453
1682880518105499000,15.063498779296875,-0.91890949010849,1.185070514678955,4.422720432281494
1682880518122383000,15.080383056640626,-0.9274720549583435,0.32761287689208984,4.546546936035156
1682880518139256000,15.097256103515624,-1.071213960647583,-1.1668720245361328,4.103589057922363
1682880518156130600,15.114130615234375,-2.127695083618164,-2.6707468032836914,2.38424015045166
1682880518173003500,15.13100341796875,-2.227142095565796,-3.1976318359375,0.614281177520752
1682880518189877000,15.147876953125,-1.6405041217803955,-4.890671730041504,1.1875656843185425
1682880518206750200,15.164750244140626,-1.7594537734985352,-4.259145736694336,0.5410017967224121
1682880518223624200,15.181624267578124,-0.8033010959625244,-2.047748565673828,-1.0144891738891602
1682880518240494000,15.198494140625,2.131300687789917,-2.6102962493896484,-1.831244945526123
1682880518257373400,15.21537353515625,15.104519844055176,-3.9278688430786133,-3.474221706390381
1682880518274244000,15.232244140625,21.62163543701172,0.620147705078125,-5.5359697341918945
1682880518291117800,15.249117919921876,5.156662940979004,1.7817130088806152,-3.684203624725342
1682880518307990500,15.265990478515626,-0.49706292152404785,0.14155960083007812,-1.7115468978881836
1682880518324852500,15.2828525390625,-0.9286828637123108,-0.8255043029785156,-1.3306047916412354
1682880518341726000,15.299725830078126,-0.4527014493942261,0.2504844665527344,-0.9113956689834595
1682880518358604300,15.316604248046875,-1.7649316787719727,0.6722011566162109,-0.16955482959747314
1682880518375475000,15.333474853515625,-2.7829298973083496,0.8073673248291016,0.24735808372497559
1682880518392348000,15.350347900390625,-4.465374946594238,1.2798261642456055,0.4415779113769531
1682880518409222400,15.367222412109374,-5.274264335632324,1.7296438217163086,0.5766059160232544
1682880518426094000,15.384093994140626,-4.451897621154785,2.482520580291748,0.6419386863708496
1682880518442967600,15.400967529296874,-2.6819686889648438,1.9818964004516602,0.5880037546157837
1682880518459846000,15.417845947265626,-0.5975387692451477,0.7988300323486328,0.44141513109207153
1682880518476715300,15.43471533203125,1.678147792816162,0.5016851425170898,0.0273897647857666
1682880518493588500,15.45158837890625,3.1638429164886475,0.982325553894043,-0.310183048248291
1682880518510463200,15.468463134765624,2.996171236038208,1.3861894607543945,-0.5193458795547485
1682880518527338200,15.485338134765625,1.8941395282745361,1.8294482231140137,-0.6317074298858643
1682880518544208100,15.5022080078125,0.9736654162406921,2.170142650604248,-0.539772629737854
1682880518561085700,15.519085693359376,0.480338454246521,1.6128129959106445,-0.33342838287353516
1682880518577959200,15.535959228515624,-0.2545293867588043,0.5907669067382812,0.059830546379089355
1682880518594829600,15.55282958984375,-0.9226945638656616,-0.15918827056884766,0.5142747759819031
1682880518611704300,15.569704345703125,-1.7066843509674072,-0.8843269348144531,0.8611171245574951
1682880518628579300,15.586579345703125,-2.1251697540283203,-1.6882619857788086,1.2348299026489258
1682880518645460700,15.603460693359375,-1.8176074028015137,-2.6091747283935547,2.023662567138672
1682880518662325800,15.62032568359375,-0.815178632736206,-2.8448219299316406,3.107835054397583
1682880518679201300,15.637201171875,-0.31330057978630066,-1.9131498336791992,4.111694812774658
1682880518696072200,15.654072265625,3.7274158000946045,-1.4806594848632812,4.545663833618164
1682880518712943400,15.670943359375,3.3182320594787598,-3.122678756713867,4.097645282745361
1682880518729819600,15.687819580078125,2.8049521446228027,-5.03070068359375,3.438621759414673
1682880518746699500,15.704699462890625,1.657350778579712,-5.726634979248047,3.404327869415283
1682880518763573800,15.72157373046875,2.700998067855835,-2.355417251586914,2.389033079147339
1682880518780458200,15.738458251953125,3.6830198764801025,1.211247444152832,1.9910658597946167
1682880518797320400,15.755320556640624,2.9728803634643555,3.1924829483032227,1.392266869544983
1682880518814193400,15.772193359375,1.2415492534637451,4.188665866851807,0.6188863515853882
1682880518831067100,15.789067138671875,0.05645787715911865,4.787937164306641,0.042333126068115234
1682880518847940000,15.805940185546875,0.3747432827949524,3.4387106895446777,-0.20109796524047852
1682880518864814300,15.822814453125,1.89695143699646,0.7394676208496094,-0.7975102663040161
1682880518881684200,15.839684326171875,2.41931414604187,-2.5559911727905273,-1.5648620128631592
1682880518898563600,15.8565634765625,0.9122092723846436,-4.694741249084473,-2.0648767948150635
1682880518915434200,15.873434326171875,-1.1534501314163208,-4.022212028503418,-2.0301034450531006
1682880518932307500,15.890307373046875,-1.7444754838943481,-0.7754611968994141,-1.763703465461731
1682880518949181000,15.907180908203125,-1.4582164287567139,1.6554498672485352,-1.6458582878112793
1682880518966054700,15.9240546875,-1.0187478065490723,2.6072158813476562,-1.6178860664367676
1682880518982928000,15.940927978515624,-0.5997861623764038,2.5460081100463867,-1.8121641874313354
1682880518999801300,15.95780126953125,-0.7409927845001221,1.690877914428711,-2.1646976470947266
1682880519016674600,15.974674560546875,-1.3655409812927246,0.20693683624267578,-2.448107957839966
1682880519033548300,15.99154833984375,-1.9856659173965454,-1.2179107666015625,-2.493734836578369
1682880519050421000,16.0084208984375,-2.1282358169555664,-1.2728261947631836,-2.456328868865967
1682880519067292400,16.02529248046875,-1.9443854093551636,-0.30631256103515625,-2.4469549655914307
1682880519084170800,16.042170654296875,-1.7523728609085083,0.580195426940918,-2.32978892326355
1682880519101042200,16.059042236328125,-1.6495463848114014,1.1073932647705078,-2.175407648086548
1682880519117898500,16.0758984375,-1.3702322244644165,0.9916667938232422,-1.7235960960388184
1682880519134791200,16.092791259765626,-1.1675467491149902,0.35959625244140625,-1.304707646369934
1682880519151659300,16.1096591796875,-1.2410634756088257,-0.17865371704101562,-0.9839694499969482
1682880519168534300,16.1265341796875,-1.364283800125122,-0.3339414596557617,-0.743161678314209
1682880519185412900,16.143412841796874,-1.3473387956619263,-0.3071250915527344,-0.4935559034347534
1682880519202282500,16.160282470703127,-1.2043471336364746,-0.1316814422607422,-0.251350998878479
1682880519219153000,16.17715283203125,-0.9292410016059875,0.0733633041381836,0.07343709468841553
1682880519236021500,16.194021484375,-0.6340076923370361,0.11568546295166016,0.38803815841674805
1682880519252902400,16.21090234375,-0.45025476813316345,-0.023072242736816406,0.6670286655426025
1682880519269776400,16.2277763671875,-0.41572242975234985,-0.3883209228515625,0.985653281211853
1682880519286649000,16.244649169921875,-0.37982863187789917,-0.9294366836547852,1.3284060955047607
1682880519303522800,16.261522705078125,-0.32493358850479126,-1.3185129165649414,1.6034189462661743
1682880519320385300,16.27838525390625,-0.13162732124328613,-1.4137639999389648,1.8400328159332275
1682880519337270000,16.29527001953125,0.4602033495903015,-0.9810953140258789,2.1377243995666504
1682880519354143000,16.31214306640625,0.30717140436172485,-0.26154041290283203,2.910554885864258
1682880519371016700,16.3290166015625,0.5178053379058838,0.46692371368408203,3.550905704498291
1682880519387889700,16.3458896484375,0.8267244696617126,1.0512065887451172,4.191239833831787
1682880519404763400,16.362763427734375,1.1803070306777954,1.2977466583251953,4.854463577270508
1682880519421633800,16.3796337890625,1.2625519037246704,1.0036964416503906,5.35240364074707
1682880519438513200,16.39651318359375,0.547964870929718,-0.5386857986450195,4.968555927276611
1682880519455383300,16.41338330078125,-0.2113436460494995,-3.202286720275879,3.125166177749634
1682880519472246500,16.43024658203125,-1.5139700174331665,-5.623895645141602,1.7541093826293945
1682880519489130000,16.4471298828125,-2.7907662391662598,-6.599429130554199,0.6172497272491455
1682880519506004000,16.46400390625,-3.1643388271331787,-5.217225074768066,0.30759692192077637
1682880519522875600,16.480875732421875,-2.7904303073883057,-2.9594287872314453,1.816365122795105
1682880519539751700,16.497751708984374,-3.2319869995117188,-2.2004928588867188,3.721247673034668
1682880519556624000,16.514623779296876,5.849482536315918,-2.727548599243164,5.460662841796875
1682880519573497300,16.531497314453127,39.4805793762207,-3.7716894149780273,-3.8792762756347656
1682880519590370600,16.54837060546875,6.57140588760376,0.7569198608398438,-3.3685545921325684
1682880519607242500,16.565242431640623,-2.5376791954040527,1.0742902755737305,-1.2381325960159302
1682880519624119600,16.58211962890625,-2.5208239555358887,0.1219329833984375,-2.1289775371551514
1682880519640991200,16.5989912109375,-1.5873204469680786,-3.243837356567383,-1.6765657663345337
1682880519657864000,16.615864013671874,1.559401512145996,-2.3739442825317383,-1.270355463027954
1682880519674749400,16.63274951171875,-0.14343976974487305,0.08891582489013672,-2.009213447570801
1682880519691608800,16.64960888671875,-0.8898615837097168,1.9329876899719238,-2.2453765869140625
1682880519708487200,16.666487060546874,-2.900111675262451,2.7506189346313477,-1.842914342880249
1682880519725359600,16.683359619140624,-4.102128028869629,3.4747729301452637,-1.494761347770691
1682880519742232300,16.700232421875,-4.22512674331665,4.003471851348877,-0.9599131345748901
1682880519759104500,16.7171044921875,-2.9073429107666016,4.063841819763184,-0.3489011526107788
1682880519775967700,16.7339677734375,-2.0211234092712402,3.7864747047424316,-0.2685645818710327
1682880519792851700,16.750851806640625,-1.7579166889190674,3.505363941192627,-0.38811057806015015
1682880519809725400,16.767725341796876,-1.4914462566375732,3.457596778869629,-0.5209634900093079
1682880519826598100,16.78459814453125,-0.2644484043121338,3.563627243041992,-0.3995358347892761
1682880519843472400,16.801472412109376,1.1351162195205688,3.286205768585205,0.1630536913871765
1682880519860345300,16.818345458984375,1.9137521982192993,2.2404518127441406,0.796212911605835
1682880519877210400,16.83521044921875,2.183042287826538,0.3119964599609375,1.4490966796875
1682880519894091800,16.852091796875,2.0697803497314453,-2.0662593841552734,2.6112313270568848
1682880519910966000,16.868966064453126,3.7748055458068848,-4.534492492675781,4.121097087860107
1682880519927838500,16.88583837890625,4.868238925933838,-5.398069381713867,5.411941051483154
1682880519944712700,16.902712646484375,5.96890926361084,-4.382704734802246,5.807085990905762
1682880519961583000,16.9195830078125,4.982677459716797,-3.4503965377807617,4.962510585784912
1682880519978462000,16.9364619140625,2.9927992820739746,-2.7564706802368164,2.9136979579925537
1682880519995332400,16.953332275390625,3.3171191215515137,-0.8951416015625,-0.6231217384338379
1682880520012206000,16.9702060546875,1.5061085224151611,-2.2508726119995117,-4.072916030883789
1682880520029079000,16.9870791015625,0.7610449194908142,-4.623064041137695,-6.2617902755737305
1682880520045953000,17.003953125,0.062170643359422684,-5.451186180114746,-5.55644416809082
1682880520062826200,17.020826171875,-0.2545464336872101,-4.469479560852051,-3.651754856109619
1682880520079699000,17.037698974609373,-0.23976224660873413,-2.742706298828125,-0.32274317741394043
1682880520096573700,17.05457373046875,-2.4613146781921387,0.6162757873535156,1.5445433855056763
1682880520113446700,17.07144677734375,-1.7880122661590576,4.576891899108887,1.4521136283874512
1682880520130319400,17.0883193359375,-1.2164971828460693,6.9255218505859375,1.0420849323272705
1682880520147193300,17.105193359375,-0.9669089317321777,7.83236026763916,-0.5174411535263062
1682880520164066600,17.122066650390625,-1.6737979650497437,6.401064872741699,-0.7969013452529907
1682880520180940000,17.13893994140625,-2.1449105739593506,2.994462013244629,-1.8312627077102661
1682880520197803300,17.15580322265625,-2.563126802444458,-2.1820716857910156,-3.546797513961792
1682880520214687200,17.172687255859376,-1.887794017791748,-6.480057716369629,-4.83101749420166
1682880520231557000,17.18955712890625,-1.0724434852600098,-6.246635437011719,-4.041574001312256
1682880520248436200,17.206436279296874,0.07520192861557007,-0.24683094024658203,-2.5703561305999756
1682880520265307000,17.223306884765623,-0.8562207221984863,2.9482831954956055,-1.6460906267166138
1682880520282180600,17.2401806640625,-1.135438323020935,3.8778820037841797,-1.0435117483139038
1682880520299053800,17.2570537109375,-0.94888836145401,2.8242454528808594,-0.691020131111145
1682880520315917000,17.2739169921875,-1.1185308694839478,0.6489133834838867,-0.82445228099823
1682880520332800300,17.29080029296875,-1.219891905784607,-1.0717401504516602,-0.924304723739624
1682880520349674000,17.307674072265623,-0.8492572903633118,-0.9518451690673828,-0.5751208066940308
1682880520366547000,17.324546875,-0.22675375640392303,-0.15364360809326172,-0.050299882888793945
1682880520383421000,17.3414208984375,0.18624775111675262,0.32518577575683594,0.2689497470855713
1682880520400292600,17.358292724609374,0.3507861793041229,0.33801746368408203,0.48325562477111816
1682880520417169200,17.375169189453125,0.4204411208629608,-0.1349315643310547,0.7302155494689941
1682880520434041000,17.392041015625,0.6385459899902344,-0.8127937316894531,1.0778400897979736
1682880520450914800,17.408914794921873,0.8342882394790649,-1.2627344131469727,1.4917234182357788
1682880520467787300,17.425787353515624,0.9407082796096802,-1.2233362197875977,1.8217790126800537
1682880520484662000,17.442662109375,0.993482232093811,-0.7712745666503906,2.0033154487609863
1682880520501533000,17.459532958984376,0.9944961667060852,-0.16046905517578125,2.131680965423584
1682880520518409200,17.4764091796875,0.963408350944519,0.25142955780029297,2.4384493827819824
1682880520535281400,17.493281494140625,0.7330979704856873,-0.00678253173828125,3.047319173812866
1682880520552155100,17.510155029296875,0.6040006279945374,-0.4282236099243164,3.316969156265259
1682880520569028000,17.527028076171874,0.8309519290924072,-0.1850881576538086,3.4137706756591797
1682880520585891300,17.543891357421874,1.1814684867858887,0.37887096405029297,3.640033483505249
1682880520602774500,17.5607744140625,1.3052514791488647,0.5839481353759766,3.8845601081848145
1682880520619648800,17.577648681640625,0.8351102471351624,-0.23973560333251953,3.800293445587158
1682880520636521700,17.594521728515623,0.24120736122131348,-1.980748176574707,3.4699416160583496
1682880520653395700,17.611395751953125,0.14600002765655518,-3.433690071105957,3.359987735748291
1682880520670268400,17.628268310546876,0.9940239191055298,-5.549177169799805,2.6481332778930664
1682880520687142400,17.645142333984374,2.6394081115722656,-6.4840545654296875,1.7420542240142822
1682880520704014800,17.662014892578124,4.521158695220947,-7.141949653625488,0.9401330947875977
1682880520720888800,17.678888916015627,2.973952531814575,-5.689505577087402,1.741760015487671
1682880520737765600,17.695765625,-0.6326756477355957,-2.8447084426879883,2.303934097290039
1682880520754632400,17.712632568359375,4.176072597503662,1.897554874420166,2.3471665382385254
1682880520771504400,17.72950439453125,8.904373168945312,5.540688514709473,-0.8523797988891602
1682880520788387300,17.74638720703125,4.800978183746338,1.1988506317138672,-1.4455678462982178
1682880520805255400,17.76325537109375,-1.0959393978118896,-1.923471450805664,-0.6568026542663574
1682880520822129200,17.780129150390625,-2.8526458740234375,-3.7622509002685547,-1.0339136123657227
1682880520839002000,17.797002197265623,-4.484261512756348,-5.191821098327637,-2.1283187866210938
1682880520855865600,17.813865478515623,-4.945087432861328,-5.470288276672363,-2.886664390563965
1682880520872749300,17.830749267578124,-4.633286952972412,-3.731485366821289,-3.242488145828247
1682880520889623000,17.847623046875,-2.0672476291656494,-0.3956451416015625,-3.1803314685821533
1682880520906483500,17.8644833984375,-1.262135624885559,1.973278522491455,-2.965470790863037
1682880520923369700,17.88136962890625,-3.8208889961242676,2.8942694664001465,-2.153949737548828
1682880520940242400,17.898242431640625,-5.434550762176514,2.8285717964172363,-1.6117327213287354
1682880520957111300,17.915111328125,-4.751842498779297,2.6942858695983887,-1.2053618431091309
1682880520973989600,17.93198974609375,-2.5535473823547363,2.843338966369629,-1.29902982711792
1682880520990863600,17.948863525390625,-0.6664009094238281,3.778318405151367,-2.092089891433716
1682880521007725600,17.9657255859375,0.9795956611633301,5.263922214508057,-3.301712989807129
1682880521024610300,17.9826103515625,1.732438325881958,6.159541130065918,-4.2912774085998535
1682880521041485000,17.999485107421876,1.0507628917694092,5.380478858947754,-5.140354633331299
1682880521058345000,18.016344970703123,0.2933445870876312,3.529247283935547,-5.6199164390563965
1682880521075229700,18.033229736328124,3.6202027797698975,0.6357183456420898,-5.206336975097656
1682880521092103700,18.050103759765626,5.3469133377075195,-2.528672218322754,-2.919464588165283
1682880521108976400,18.066976318359377,1.3620527982711792,-3.7554683685302734,-0.11985969543457031
1682880521125840000,18.08383984375,0.7206871509552002,-5.167177200317383,3.352663040161133
1682880521142723600,18.1007236328125,1.4202306270599365,-5.6299896240234375,5.178421497344971
1682880521159597000,18.11759716796875,0.2505738437175751,-5.191013336181641,5.382898330688477
1682880521176457200,18.134457275390623,-0.8547866344451904,-2.7828311920166016,5.520864009857178
1682880521193334300,18.151334228515626,-0.13683293759822845,0.7740583419799805,4.790534019470215
1682880521210208300,18.168208251953125,0.34128856658935547,2.1845827102661133,0.34759652614593506
1682880521227091000,18.185091064453125,0.9744637608528137,-1.8567867279052734,-3.5611181259155273
1682880521243964000,18.2019638671875,2.6945114135742188,-4.189386367797852,-3.7051846981048584
1682880521260837600,18.218837646484374,-0.661669135093689,-3.5306549072265625,-2.288015604019165
1682880521277710600,18.235710693359376,-2.3458311557769775,-1.0669326782226562,-1.6020088195800781
1682880521294584300,18.252584228515627,-0.7798182964324951,0.9296445846557617,-2.374709367752075
1682880521311454500,18.269454345703124,0.06131565570831299,2.6994447708129883,-3.559274196624756
1682880521328333600,18.28633349609375,-2.211012840270996,2.357057571411133,-2.6894524097442627
1682880521345204000,18.303203857421874,-2.231773853302002,1.808669090270996,-2.140918254852295
1682880521362077700,18.32007763671875,-2.3011226654052734,0.8287677764892578,-2.2423055171966553
1682880521378951000,18.336950927734375,-3.297386407852173,-0.46027183532714844,-2.5376017093658447
1682880521395814700,18.353814697265626,-4.545063018798828,-1.856837272644043,-2.4015276432037354
1682880521412697300,18.370697265625,-3.6631128787994385,-1.4669189453125,-1.2866066694259644
1682880521429571000,18.387571044921874,-2.038609027862549,-0.2059307098388672,-0.15393388271331787
1682880521446444300,18.4044443359375,-1.3350785970687866,0.8741846084594727,0.5260590314865112
1682880521463311600,18.4213115234375,-0.8848586082458496,0.8601112365722656,0.9973154067993164
1682880521480191200,18.438191162109376,-1.1653802394866943,0.7539749145507812,1.5820412635803223
1682880521497065000,18.45506494140625,-2.0930511951446533,1.0874090194702148,2.029712677001953
1682880521513937700,18.471937744140625,-3.628141403198242,1.4241342544555664,2.2547314167022705
1682880521530811400,18.488811279296876,-4.331550121307373,1.3020210266113281,2.0027027130126953
1682880521547684400,18.505684326171874,-3.3818840980529785,1.0188922882080078,1.60291588306427
1682880521564558300,18.522558349609376,-2.1409928798675537,0.700221061706543,1.58285391330719
1682880521581429000,18.539428955078126,-1.6386830806732178,0.6369667053222656,1.4010571241378784
1682880521598307800,18.556307861328126,-1.3551172018051147,0.31629085540771484,1.5621699094772339
1682880521615178200,18.57317822265625,-0.7372039556503296,-0.49008941650390625,1.4139773845672607
1682880521632049200,18.590049072265625,0.6577840447425842,-1.572108268737793,1.0664513111114502
1682880521648927200,18.60692724609375,2.1436619758605957,-1.6782140731811523,0.5195932388305664
1682880521665788200,18.6237880859375,3.7455453872680664,-1.074467658996582,-0.20422720909118652
1682880521682669000,18.6406689453125,3.9286859035491943,-0.7195510864257812,-0.6278939247131348
1682880521699548400,18.65754833984375,3.3900294303894043,-0.7998323440551758,-0.5609908103942871
1682880521716419000,18.674419189453126,1.407818078994751,-0.4508790969848633,0.543543815612793
1682880521733292500,18.69129248046875,0.3710378408432007,0.7289085388183594,1.7139039039611816
1682880521750165000,18.7081650390625,0.5099018812179565,0.5953836441040039,2.2037391662597656
1682880521767039000,18.7250390625,0.11117243766784668,-1.043818473815918,2.2222347259521484
1682880521783911700,18.74191162109375,-3.6756234169006348,-3.301701545715332,2.0717320442199707
1682880521800773600,18.758773681640626,-1.9786567687988281,-5.687594413757324,2.5143518447875977
1682880521817650400,18.775650390625,-1.4735286235809326,-4.126805305480957,3.646470546722412
1682880521834521600,18.792521484375,0.13718226552009583,-2.477047920227051,4.333497524261475
1682880521851395800,18.809395751953126,1.1280207633972168,-3.0564403533935547,4.973387241363525
1682880521868270000,18.82627001953125,1.4465889930725098,-4.751791954040527,5.682769298553467
1682880521885146400,18.843146484375,-0.3143414258956909,-6.521991729736328,5.647171974182129
1682880521902017000,18.86001708984375,-3.8881826400756836,-5.584559440612793,5.69899845123291
1682880521918892000,18.87689208984375,0.8726342916488647,1.2584729194641113,6.078385353088379
1682880521935761700,18.89376171875,7.1180644035339355,6.201798439025879,4.024554252624512
1682880521952646000,18.91064599609375,8.621646881103516,4.094966411590576,1.3838768005371094
1682880521969511000,18.927510986328127,2.221773862838745,-1.3562145233154297,-1.0206043720245361
1682880521986383600,18.944383544921877,-5.0474724769592285,-5.553936004638672,-2.126450538635254
1682880522003256800,18.9612568359375,-3.7974612712860107,-8.356583595275879,-2.526002883911133
1682880522020128300,18.978128173828125,-2.3317034244537354,-8.572831153869629,-2.8981146812438965
1682880522037003800,18.995003662109376,-1.9697543382644653,-4.37847900390625,-4.57403564453125
1682880522053881300,19.01188134765625,-2.6392180919647217,-0.8064365386962891,-5.654929161071777
1682880522070754600,19.028754638671874,-2.3523011207580566,1.4692049026489258,-5.393621444702148
1682880522087631000,19.045631103515625,-0.7302737236022949,2.4737744331359863,-4.6284565925598145
1682880522104499000,19.0624990234375,0.7047903537750244,2.588428020477295,-4.044678688049316
1682880522121368800,19.079368896484375,1.9873148202896118,2.989306926727295,-3.7094943523406982
1682880522138253300,19.09625341796875,0.5585421919822693,3.521880626678467,-3.7831997871398926
1682880522155117800,19.113117919921876,-1.883257508277893,3.511500358581543,-3.949664831161499
1682880522171990300,19.129990234375,-2.510570764541626,4.013504505157471,-4.092288017272949
1682880522188862500,19.146862548828125,-2.5547263622283936,4.888888359069824,-4.272179126739502
1682880522205739000,19.163739013671876,-2.5330004692077637,5.595672607421875,-4.8089799880981445
1682880522222614300,19.1806142578125,-2.3089795112609863,5.43690299987793,-4.9100189208984375
1682880522239485000,19.19748486328125,-1.1730296611785889,4.656999588012695,-4.349024772644043
1682880522256356000,19.214356201171874,0.5031221508979797,2.2922935485839844,-3.3767166137695312
1682880522273231400,19.2312314453125,3.0052154064178467,-1.7892093658447266,-1.8944997787475586
1682880522290102800,19.248102783203127,2.4828996658325195,-5.911147117614746,0.9628857970237732
1682880522306977800,19.264977783203125,0.9267290830612183,-6.635716438293457,3.579639196395874
1682880522323854800,19.281854736328125,3.5494091510772705,-6.016386985778809,4.8799896240234375
1682880522340725500,19.2987255859375,5.603789329528809,-4.3582048416137695,6.047996997833252
1682880522357597000,19.315596923828124,3.125232219696045,-2.1461181640625,5.829413414001465
1682880522374475500,19.3324755859375,0.9986922740936279,0.6139955520629883,4.513036727905273
1682880522391342600,19.349342529296877,0.20353339612483978,0.7768335342407227,-1.7032809257507324
1682880522408222200,19.36622216796875,2.8999781608581543,-3.2167348861694336,-6.877350330352783
1682880522425095700,19.383095703125,3.0900702476501465,-4.293360710144043,-6.077102184295654
1682880522441964000,19.399964111328124,-1.0634069442749023,-3.385601043701172,-4.062536716461182
1682880522458849500,19.416849609375,-4.23352575302124,-2.1721582412719727,-2.675069808959961
1682880522475710500,19.43371044921875,-3.459242105484009,1.423208236694336,-2.709467649459839
1682880522492593400,19.450593505859374,-0.9352419972419739,4.648406982421875,-2.4248945713043213
1682880522509449700,19.46744970703125,-1.0513644218444824,5.111286640167236,-2.3912744522094727
1682880522526340400,19.48434033203125,-0.7037009596824646,3.912475109100342,-2.4677772521972656
1682880522543214000,19.501214111328125,-0.6984418034553528,1.6288261413574219,-2.647155284881592
1682880522560087300,19.51808740234375,-1.2104307413101196,-0.7505788803100586,-3.1797893047332764
1682880522576961300,19.534961181640625,-2.1753385066986084,-2.514101982116699,-3.305799961090088
1682880522593833700,19.551833740234375,-2.7798633575439453,-2.387002944946289,-2.6392884254455566
1682880522610707700,19.568707763671874,-2.351297616958618,-0.4494333267211914,-1.5498085021972656
1682880522627580400,19.585580322265624,-1.6092946529388428,0.9463443756103516,-0.9760076999664307
1682880522644454100,19.6024541015625,-1.1636241674423218,1.4599409103393555,-0.7605091333389282
1682880522661324800,19.61932470703125,-1.0201544761657715,1.065521240234375,-0.5146007537841797
1682880522678204000,19.636203857421876,-1.1900595426559448,0.3896760940551758,-0.0992058515548706
1682880522695073800,19.65307373046875,-1.7103188037872314,0.33353614807128906,0.22634434700012207
1682880522711947800,19.66994775390625,-2.4121952056884766,0.7753210067749023,0.4960501194000244
1682880522728820700,19.68682080078125,-2.2909154891967773,1.1944141387939453,0.663460373878479
1682880522745683700,19.70368359375,-1.9465563297271729,1.3629283905029297,0.8979027271270752
1682880522762567400,19.7205673828125,-1.7875359058380127,1.0774164199829102,1.1226352453231812
1682880522779438300,19.737438232421876,-0.9719160795211792,0.5072441101074219,1.333035945892334
1682880522796317400,19.7543173828125,-0.6953215599060059,0.2844982147216797,1.3973969221115112
1682880522813187800,19.771187744140626,-0.8043573498725891,0.04206085205078125,1.383687973022461
1682880522830060800,19.788060791015624,0.011557012796401978,-0.8627519607543945,1.471983790397644
1682880522846934800,19.804934814453127,0.5817817449569702,-1.926285743713379,1.600861668586731
1682880522863807700,19.821807861328125,0.8064858317375183,-1.934556007385254,1.8012878894805908
1682880522880681700,19.838681640625,0.8783489465713501,-1.130727767944336,1.8392478227615356
1682880522897554700,19.8555546875,0.9006441235542297,-0.6167793273925781,1.9760313034057617
1682880522914428400,19.872428466796876,0.9365745782852173,-0.9073801040649414,2.293509006500244
1682880522931304000,19.889303955078127,0.9929352402687073,-1.8415956497192383,2.5262742042541504
1682880522948171800,19.906171875,1.169706106185913,-2.900056838989258,2.6189308166503906
1682880522965047800,19.9230478515625,1.5707991123199463,-3.1474714279174805,2.6423873901367188
1682880522981921800,19.939921875,1.8942979574203491,-3.3805456161499023,3.0423038005828857
1682880522998794500,19.95679443359375,2.3619253635406494,-5.039634704589844,3.2426178455352783
1682880523015666400,19.97366650390625,4.473191261291504,-6.2793378829956055,3.581756591796875
1682880523032541400,19.99054150390625,6.893798351287842,-6.182584762573242,3.7252259254455566
1682880523049415000,20.007414794921875,3.3472795486450195,-4.800909996032715,5.2711920738220215
1682880523066287900,20.024287841796873,9.725005149841309,2.247356414794922,3.919184684753418
1682880523083162400,20.041162353515624,8.130949974060059,4.020987510681152,1.7264082431793213
1682880523100034800,20.058034912109374,5.2456793785095215,0.36336612701416016,-0.08024477958679199
1682880523116908500,20.074908447265624,-1.8732283115386963,-2.0639123916625977,-1.5223679542541504
1682880523133781500,20.091781494140626,-3.376394748687744,-4.494856834411621,-1.678506851196289
1682880523150655500,20.108655517578125,-3.7365782260894775,-5.6769208908081055,-2.7266931533813477
1682880523167528000,20.12552783203125,-3.1559720039367676,-5.272320747375488,-4.032252311706543
1682880523184402000,20.14240185546875,-1.8666073083877563,-3.3795852661132812,-5.013145446777344
1682880523201272300,20.159272216796875,-0.7884677648544312,-1.3522186279296875,-5.502257823944092
1682880523218151400,20.1761513671875,-0.19932204484939575,0.8807058334350586,-6.047896862030029
1682880523235021800,20.193021728515625,-0.6198723316192627,3.0588130950927734,-5.925025463104248
1682880523251893000,20.20989306640625,-0.37085357308387756,4.443614482879639,-5.010295391082764
1682880523268770800,20.226770751953126,0.4579175114631653,4.670418739318848,-3.4788413047790527
1682880523285638700,20.243638671875,-0.0268094539642334,4.803054332733154,-2.944550037384033
1682880523302515000,20.260514892578126,-0.7742749452590942,4.626143455505371,-2.8307106494903564
1682880523319389000,20.277388916015624,-1.1252950429916382,4.615146636962891,-2.7935731410980225
1682880523336262000,20.294261962890626,-1.2506098747253418,4.790762424468994,-2.9677889347076416
1682880523353135900,20.311135986328125,-1.0437110662460327,4.540426254272461,-3.279034376144409
1682880523370003500,20.32800341796875,-0.4426322877407074,3.684357166290283,-3.2698545455932617
1682880523386884900,20.344884765625,0.6787005066871643,2.3599324226379395,-2.8851208686828613
1682880523403755000,20.361755126953124,1.6072396039962769,0.12047481536865234,-2.047884225845337
1682880523420618200,20.3786181640625,-0.31713640689849854,-3.679471969604492,0.07923111319541931
1682880523437502000,20.395501953125,-1.9538946151733398,-6.207993507385254,2.415764808654785
1682880523454376000,20.4123759765625,1.203278660774231,-8.172451972961426,4.050631523132324
1682880523471261000,20.429260986328124,7.529748439788818,-7.997136116027832,5.869726181030273
1682880523488121300,20.446121337890624,8.17171573638916,-5.018339157104492,6.078709602355957
1682880523504995300,20.462995361328126,6.380997180938721,-2.370115280151367,5.0821709632873535
1682880523521858600,20.479858642578126,4.120499134063721,-2.842654228210449,-0.33226895332336426
1682880523538741800,20.49674169921875,1.170809030532837,-2.86025333404541,-3.4358749389648438
1682880523555615700,20.51361572265625,2.4444289207458496,-2.672483444213867,-2.9413561820983887
1682880523572488400,20.530488525390624,-0.3517049551010132,-2.4112672805786133,-1.7213231325149536
1682880523589362400,20.547362548828126,-2.5602762699127197,0.1655740737915039,-1.3105367422103882
1682880523606235400,20.5642353515625,-1.7297414541244507,3.373607635498047,-1.366970419883728
1682880523623108400,20.5811083984375,0.2310870885848999,5.9799957275390625,-1.1317745447158813
1682880523639982600,20.597982666015625,-0.3904194235801697,6.103553771972656,-1.0382381677627563
1682880523656855600,20.61485546875,-0.15114760398864746,4.5242509841918945,-1.670357584953308
1682880523673728500,20.631728515625,-0.3776800036430359,0.6496667861938477,-2.879558563232422
1682880523690602500,20.6486025390625,-1.9480948448181152,-3.487856864929199,-4.269189357757568
1682880523707475500,20.665475341796874,-3.205847978591919,-5.650752067565918,-4.492362022399902
1682880523724349200,20.68234912109375,-3.419250249862671,-2.1847076416015625,-2.693873405456543
1682880523741221600,20.6992216796875,-2.4958791732788086,1.9172725677490234,-1.2265074253082275
1682880523758096400,20.716096435546874,-1.7553462982177734,3.6134514808654785,-0.8612669706344604
1682880523774968600,20.732968505859375,-1.3931173086166382,3.9590983390808105,-0.6492388248443604
1682880523791840000,20.749840087890625,-1.5644967555999756,2.486398696899414,-0.5563561916351318
1682880523808718000,20.766718017578125,-2.3535242080688477,0.4439229965209961,-0.6854569911956787
1682880523825589200,20.78358935546875,-2.392408847808838,-0.849696159362793,-0.6442734003067017
1682880523842462500,20.80046240234375,-1.1639387607574463,-0.7871589660644531,-0.11950325965881348
1682880523859336200,20.817336181640623,-0.378259539604187,-0.19814300537109375,0.3117213249206543
1682880523876209000,20.834208984375,-0.17881619930267334,0.34601593017578125,0.5931392908096313
1682880523893082600,20.85108251953125,-0.10758201032876968,0.5712814331054688,0.8432252407073975
1682880523909955800,20.867955810546874,0.15611958503723145,0.21771717071533203,1.0414183139801025
1682880523926829300,20.884829345703125,0.5290331244468689,-0.5531940460205078,1.208314061164856
1682880523943702300,20.901702392578127,0.7928065061569214,-1.2921485900878906,1.4127825498580933
1682880523960576500,20.918576416015625,0.8293948173522949,-1.6202888488769531,1.7945353984832764
1682880523977449000,20.935448974609375,0.7859565019607544,-1.6529722213745117,2.170011043548584
1682880523994322400,20.952322509765626,0.8070126175880432,-1.1504220962524414,2.2767457962036133
1682880524011195400,20.9691953125,0.8931257724761963,-0.6629142761230469,2.3016085624694824
1682880524028069400,20.9860693359375,1.110976219177246,-0.9451131820678711,2.646519422531128
1682880524044940000,21.00293994140625,1.3210818767547607,-1.7942466735839844,3.0678482055664062
1682880524061818600,21.019818603515624,1.4809315204620361,-2.7868165969848633,3.287289619445801
1682880524078689000,21.03668896484375,1.5413709878921509,-2.8471736907958984,3.013902425765991
1682880524095561500,21.0535615234375,1.7425962686538696,-2.858078956604004,3.2888872623443604
1682880524112436700,21.070436767578126,2.1360998153686523,-4.3146162033081055,3.379258155822754
1682880524129309200,21.08730908203125,2.9785990715026855,-5.860306739807129,3.5340003967285156
1682880524146180000,21.10418017578125,4.83688497543335,-6.767365455627441,4.252917289733887
1682880524163059000,21.121058837890626,4.965461730957031,-6.487109184265137,5.146975040435791
1682880524179929000,21.13792919921875,6.540859222412109,-2.5554656982421875,5.614485740661621
1682880524196802800,21.154802734375,9.587233543395996,2.7312798500061035,3.1565446853637695
1682880524213675500,21.171675537109376,5.66796350479126,2.665637493133545,1.6609795093536377
1682880524230549200,21.18854931640625,-0.05771451070904732,1.0544452667236328,0.060465335845947266
1682880524247422200,21.205422119140625,-1.7495107650756836,-1.4769229888916016,0.017134904861450195
1682880524264296200,21.222296142578124,-1.6729869842529297,-4.467513084411621,-0.5118167400360107
1682880524281169200,21.239169189453126,-1.2185570001602173,-6.968413352966309,-2.169668674468994
1682880524298043000,21.25604296875,-1.5639541149139404,-7.733451843261719,-3.833435535430908
1682880524314915800,21.272915771484374,-1.9440288543701172,-4.406676292419434,-4.982706546783447
1682880524331786800,21.289786865234376,-2.231078624725342,-0.34668636322021484,-5.48408317565918
1682880524348673800,21.306673828125,-2.143566131591797,2.6453075408935547,-5.330347061157227
1682880524365524500,21.3235244140625,-2.499366283416748,4.292819023132324,-4.49675989151001
1682880524382399700,21.340399658203125,-2.3814215660095215,5.37852144241333,-3.7368948459625244
