time,seconds_elapsed,z,y,x
1682880503214641700,0.1726416015625,9.0225830078125,3.7293431758880615,0.9597497582435608
1682880503231498000,0.189498046875,9.003499031066895,3.704720973968506,1.2033979892730713
1682880503248386800,0.20638671875,8.982529640197754,3.708003282546997,1.3420050144195557
1682880503265259500,0.223259521484375,8.976022720336914,3.72092604637146,1.3497484922409058
1682880503282130700,0.240130615234375,8.974634170532227,3.716430902481079,1.3712060451507568
1682880503299009800,0.257009765625,8.964337348937988,3.6990129947662354,1.481238603591919
1682880503315869400,0.273869384765625,8.934085845947266,3.684157609939575,1.6867742538452148
1682880503332753700,0.290753662109375,8.87591552734375,3.687213659286499,1.9643570184707642
1682880503349627400,0.30762744140625,8.789889335632324,3.7198221683502197,2.2664690017700195
1682880503366501000,0.324501220703125,8.690675735473633,3.771512746810913,2.5463621616363525
1682880503383363600,0.341363525390625,8.586389541625977,3.8046159744262695,2.834594249725342
1682880503400248600,0.35824853515625,8.477313995361328,3.798970937728882,3.152629852294922
1682880503417104100,0.375104248046875,8.347067832946777,3.7583203315734863,3.526697874069214
1682880503433995500,0.39199560546875,8.173136711120605,3.703993797302246,3.9643890857696533
1682880503450865200,0.408865234375,7.950069427490234,3.679809331893921,4.414918899536133
1682880503467742500,0.425742431640625,7.66668701171875,3.729762554168701,4.852514743804932
1682880503484616400,0.442616455078125,7.291516304016113,3.8245456218719482,5.333174228668213
1682880503501486000,0.459486083984375,6.8350348472595215,3.9047811031341553,5.854151725769043
1682880503518357000,0.47635693359375,6.546848297119141,3.9112837314605713,6.170636177062988
1682880503535237400,0.4932373046875,6.439966201782227,3.881892442703247,6.300305366516113
1682880503552110600,0.510110595703125,6.438133239746094,3.882528066635132,6.301787853240967
1682880503568984300,0.526984375,6.498574733734131,3.9014151096343994,6.227647304534912
1682880503585847300,0.543847412109375,6.549335479736328,3.9092142581939697,6.169307231903076
1682880503602731800,0.560731689453125,6.537906169891357,3.8945748805999756,6.190653324127197
1682880503619605200,0.577605224609375,6.467401027679443,3.8356969356536865,6.300497531890869
1682880503636478700,0.594478759765625,6.404571533203125,3.710099458694458,6.438379764556885
1682880503653352400,0.6113525390625,6.401133060455322,3.563185691833496,6.524209976196289
1682880503670225700,0.6282255859375,6.482193946838379,3.455533266067505,6.5020432472229
1682880503687099100,0.64509912109375,6.627933979034424,3.407867431640625,6.379109859466553
1682880503703973000,0.66197314453125,6.804041385650635,3.4142379760742188,6.187415599822998
1682880503720846600,0.6788466796875,6.991106033325195,3.4558122158050537,5.951295852661133
1682880503737702700,0.69570263671875,7.161548614501953,3.497952699661255,5.719498157501221
1682880503754591500,0.712591552734375,7.319167613983154,3.4943764209747314,5.518625736236572
1682880503771469300,0.72946923828125,7.4638237953186035,3.427239418029785,5.364837169647217
1682880503788341200,0.74634130859375,7.585096836090088,3.290146589279175,5.279901027679443
1682880503805215200,0.76321533203125,7.690199851989746,3.096121311187744,5.245089530944824
1682880503822081000,0.7800810546875,7.77675724029541,2.911741018295288,5.223018646240234
1682880503838961200,0.796961181640625,7.825821876525879,2.783120632171631,5.219852447509766
1682880503855824600,0.81382470703125,7.840617656707764,2.6970574855804443,5.242776393890381
1682880503872709000,0.830709228515625,7.829065322875977,2.629122257232666,5.294294834136963
1682880503889582600,0.84758251953125,7.794318199157715,2.5719516277313232,5.373061180114746
1682880503906456300,0.864456298828125,7.746037483215332,2.51822829246521,5.467498779296875
1682880503923329500,0.88132958984375,7.706395626068115,2.446491003036499,5.5553812980651855
1682880503940203300,0.898203369140625,7.671236038208008,2.36771821975708,5.637566089630127
1682880503957077200,0.9150771484375,7.623504638671875,2.3028500080108643,5.728453159332275
1682880503973951000,0.931950927734375,7.550565242767334,2.2451589107513428,5.846736907958984
1682880503990813400,0.9488134765625,7.471688270568848,2.16907000541687,5.975375652313232
1682880504007698000,0.965697998046875,7.38579797744751,2.0755298137664795,6.1137776374816895
1682880504024562200,0.982562255859375,7.299160957336426,1.9695804119110107,6.2513298988342285
1682880504041445400,0.9994453125,7.231884002685547,1.8542920351028442,6.36376953125
1682880504058307600,1.0163076171875,7.185297966003418,1.7504490613937378,6.445426940917969
1682880504075192300,1.0331923828125,7.151273727416992,1.6831470727920532,6.500955104827881
1682880504092066000,1.050066162109375,7.165960311889648,1.669289469718933,6.488343238830566
1682880504108935700,1.066935791015625,7.225723743438721,1.723078966140747,6.407497406005859
1682880504125806300,1.083806396484375,7.293555736541748,1.8246570825576782,6.30164909362793
1682880504142676500,1.100676513671875,7.35901403427124,1.904922604560852,6.200990676879883
1682880504159559400,1.117559326171875,7.434041500091553,1.899670958518982,6.112478256225586
1682880504176423700,1.134423583984375,7.511483192443848,1.8081659078598022,6.045185089111328
1682880504193307100,1.15130712890625,7.582901954650879,1.7021448612213135,5.986518859863281
1682880504210178600,1.168178466796875,7.6399030685424805,1.6202898025512695,5.936552047729492
1682880504227057000,1.185056884765625,7.68610143661499,1.547370433807373,5.896236419677734
1682880504243928000,1.201927978515625,7.733208656311035,1.4588006734848022,5.857089519500732
1682880504260798700,1.218798828125,7.790846347808838,1.3393763303756714,5.809035301208496
1682880504277677600,1.235677490234375,7.861043453216553,1.1743196249008179,5.749877452850342
1682880504294548700,1.252548828125,7.940337181091309,0.9494587779045105,5.682048320770264
1682880504311407600,1.26940771484375,8.003067970275879,0.6573030948638916,5.635154724121094
1682880504328300000,1.286300048828125,8.047310829162598,0.2942877411842346,5.602705001831055
1682880504345179600,1.3031796875,8.061724662780762,-0.1108851432800293,5.588596820831299
1682880504362030600,1.320030517578125,8.047505378723145,-0.5199408531188965,5.586003303527832
1682880504378909200,1.3369091796875,8.004120826721191,-0.9285826086997986,5.595346927642822
1682880504395776800,1.35377685546875,7.936707019805908,-1.3602842092514038,5.603072643280029
1682880504412664000,1.3706640625,7.828554153442383,-1.854670763015747,5.6133809089660645
1682880504429536000,1.387535888671875,7.652495384216309,-2.40189528465271,5.648568630218506
1682880504446416000,1.404415771484375,7.405779838562012,-2.9616267681121826,5.711331367492676
1682880504463284700,1.42128466796875,7.094740390777588,-3.5130815505981445,5.793015003204346
1682880504480158500,1.438158447265625,6.750193119049072,-4.064586162567139,5.84381103515625
1682880504497032000,1.455031982421875,6.389244556427002,-4.6039533615112305,5.84955358505249
1682880504513905400,1.471905517578125,6.033244609832764,-5.080792427062988,5.832805633544922
1682880504530779100,1.488779052734375,5.7039794921875,-5.464489459991455,5.817222595214844
1682880504547652600,1.505652587890625,5.429980278015137,-5.767387866973877,5.7869391441345215
1682880504564526300,1.5225263671875,5.2082438468933105,-6.015196323394775,5.738268852233887
1682880504581397800,1.539397705078125,5.014163494110107,-6.243752956390381,5.6665520668029785
1682880504598275800,1.55627587890625,4.809459686279297,-6.480445384979248,5.577547550201416
1682880504615146800,1.573146728515625,4.552195072174072,-6.737584114074707,5.488040924072266
1682880504632017700,1.590017578125,4.259642124176025,-6.9996562004089355,5.394106864929199
1682880504648894200,1.606894287109375,3.9691593647003174,-7.238081455230713,5.300194263458252
1682880504665776400,1.6237763671875,3.7071919441223145,-7.427778720855713,5.226945400238037
1682880504682638800,1.640638916015625,3.470083236694336,-7.566961765289307,5.189962387084961
1682880504699517700,1.657517578125,3.24251389503479,-7.690920829772949,5.154798984527588
1682880504716390000,1.674389892578125,3.0125584602355957,-7.820287704467773,5.099381923675537
1682880504733260800,1.6912607421875,2.7780961990356445,-7.941150665283203,5.045435905456543
1682880504750132500,1.708132568359375,2.5545995235443115,-8.038352966308594,5.009493350982666
1682880504767011800,1.72501171875,2.3566842079162598,-8.106119155883789,4.997299671173096
1682880504783883300,1.74188330078125,2.1416730880737305,-8.148351669311523,5.025307655334473
1682880504800756200,1.758756103515625,1.8354992866516113,-8.189704895019531,5.078956127166748
1682880504817627400,1.77562744140625,1.498928427696228,-8.248318672180176,5.094563007354736
1682880504834506000,1.792506103515625,1.2008885145187378,-8.309287071228027,5.074419021606445
1682880504851377000,1.809376953125,0.9747694730758667,-8.351813316345215,5.053033351898193
1682880504868250000,1.82625,0.811802089214325,-8.377840042114258,5.038738250732422
1682880504885124600,1.84312451171875,0.6822371482849121,-8.416958808898926,4.992539882659912
1682880504901997800,1.859997802734375,0.47019240260124207,-8.460210800170898,4.943671226501465
1682880504918869800,1.876869873046875,0.1202840656042099,-8.495721817016602,4.90350341796875
1682880504935736600,1.893736572265625,-0.3157113194465637,-8.510354042053223,4.869325160980225
1682880504952624600,1.910624755859375,-0.7558038830757141,-8.485006332397461,4.865137100219727
1682880504969481500,1.9274814453125,-1.1534885168075562,-8.457674026489258,4.834599494934082
1682880504986356000,1.94435595703125,-1.5133858919143677,-8.443408012390137,4.759687900543213
1682880505003239200,1.9612392578125,-1.8333323001861572,-8.4017333984375,4.720793724060059
1682880505020112600,1.978112548828125,-2.0876128673553467,-8.308469772338867,4.779887676239014
1682880505036986400,1.994986328125,-2.2426540851593018,-8.179443359375,4.929844379425049
1682880505053860000,2.011860107421875,-2.3138997554779053,-8.039670944213867,5.123053550720215
1682880505070730500,2.02873046875,-2.3698782920837402,-7.894254684448242,5.319828510284424
1682880505087609300,2.045609375,-2.429922103881836,-7.738147735595703,5.518398761749268
1682880505104480500,2.06248046875,-2.4676384925842285,-7.581958770751953,5.714961051940918
1682880505121354000,2.07935400390625,-2.456285238265991,-7.445213794708252,5.896742343902588
1682880505138227500,2.0962275390625,-2.392986536026001,-7.353570938110352,6.0361199378967285
1682880505155101400,2.113101318359375,-2.3633038997650146,-7.265923500061035,6.152823448181152
1682880505171974700,2.129974609375,-2.344860076904297,-7.167171478271484,6.274499893188477
1682880505188848600,2.1468486328125,-2.30477237701416,-7.0240559577941895,6.448784351348877
1682880505205709600,2.16370947265625,-2.1817574501037598,-6.8682332038879395,6.656083106994629
1682880505222584800,2.180584716796875,-1.996077060699463,-6.714964866638184,6.867389678955078
1682880505239469300,2.19746923828125,-1.810286045074463,-6.589888572692871,7.037923812866211
1682880505256343000,2.214343017578125,-1.7093364000320435,-6.511411666870117,7.135530471801758
1682880505273215700,2.2312158203125,-1.7706737518310547,-6.499207973480225,7.131697177886963
1682880505290090000,2.248090087890625,-1.8925679922103882,-6.540246486663818,7.0625433921813965
1682880505306963500,2.26496337890625,-1.9525824785232544,-6.603224754333496,6.987204551696777
1682880505323823000,2.281822998046875,-1.9272549152374268,-6.653791904449463,6.946141719818115
1682880505340699600,2.29869970703125,-1.8357386589050293,-6.6709370613098145,6.954479694366455
1682880505357584400,2.31558447265625,-1.650756597518921,-6.653233528137207,7.017518997192383
1682880505374457300,2.332457275390625,-1.3207929134368896,-6.641845703125,7.097714424133301
1682880505391331600,2.34933154296875,-0.8457526564598083,-6.72889518737793,7.08821439743042
1682880505408204300,2.366204345703125,-0.381845086812973,-6.958756446838379,6.90405797958374
1682880505425075500,2.383075439453125,-0.14908219873905182,-7.232730865478516,6.6258225440979
1682880505441953500,2.39995361328125,-0.08725332468748093,-7.434697151184082,6.399512767791748
1682880505458826200,2.416826171875,-0.049147795885801315,-7.570779800415039,6.238349437713623
1682880505475695900,2.43369580078125,0.14735814929008484,-7.707698822021484,6.066775321960449
1682880505492570000,2.450570068359375,0.5256234407424927,-7.852670192718506,5.856227397918701
1682880505509448700,2.46744873046875,1.001887321472168,-7.998327732086182,5.590983867645264
1682880505526319900,2.48431982421875,1.384481430053711,-8.17296314239502,5.2461395263671875
1682880505543196200,2.501196044921875,1.5384008884429932,-8.440237045288086,4.757293224334717
1682880505560063500,2.5180634765625,1.6923726797103882,-8.701509475708008,4.201869487762451
1682880505576940300,2.534940185546875,1.8275877237319946,-8.859519958496094,3.7953851222991943
1682880505593811700,2.551811767578125,1.9306023120880127,-8.961406707763672,3.4931464195251465
1682880505610690000,2.56868994140625,1.9339076280593872,-9.050153732299805,3.254356861114502
1682880505627561000,2.58556103515625,1.7389525175094604,-9.13978385925293,3.1107101440429688
1682880505644432100,2.60243212890625,1.4543335437774658,-9.242155075073242,2.9501852989196777
1682880505661312000,2.61931201171875,1.1789650917053223,-9.34188461303711,2.7523398399353027
1682880505678180000,2.63618017578125,0.9742341637611389,-9.455896377563477,2.423434019088745
1682880505695055000,2.65305517578125,0.8386169075965881,-9.57217788696289,1.9764204025268555
1682880505711929000,2.66992919921875,0.650784432888031,-9.662806510925293,1.562945008277893
1682880505728802600,2.686802490234375,0.44213876128196716,-9.718487739562988,1.2616016864776611
1682880505745666300,2.703666259765625,0.3588692843914032,-9.746390342712402,1.0560393333435059
1682880505762549500,2.720549560546875,0.3390379548072815,-9.768204689025879,0.8386448621749878
1682880505779423200,2.73742333984375,0.2891348898410797,-9.78906536102295,0.5715875625610352
1682880505796297000,2.754296875,0.25504738092422485,-9.802674293518066,0.28046464920043945
1682880505813169700,2.771169677734375,0.32988792657852173,-9.804183006286621,-0.07266160100698471
1682880505830043400,2.78804345703125,0.5942458510398865,-9.776086807250977,-0.5577755570411682
1682880505846917000,2.804917236328125,0.9466171860694885,-9.708471298217773,-1.0419282913208008
1682880505863791000,2.821791015625,1.2235052585601807,-9.649922370910645,-1.272074580192566
1682880505880664300,2.838664306640625,1.3275995254516602,-9.644243240356445,-1.2092069387435913
1682880505897537500,2.85553759765625,1.298229694366455,-9.666359901428223,-1.0546132326126099
1682880505914410000,2.872409912109375,1.1978296041488647,-9.694550514221191,-0.9038915634155273
1682880505931282400,2.889282470703125,1.052238941192627,-9.722884178161621,-0.7709934115409851
1682880505948160800,2.906160888671875,0.8717906475067139,-9.747857093811035,-0.6748286485671997
1682880505965032200,2.9230322265625,0.6693806648254395,-9.764520645141602,-0.6649833917617798
1682880505981906000,2.939906005859375,0.4691861569881439,-9.767295837402344,-0.7847846746444702
1682880505998777000,2.956777099609375,0.28673356771469116,-9.753746032714844,-1.0091263055801392
1682880506015668700,2.973668701171875,0.12553417682647705,-9.727448463439941,-1.2637581825256348
1682880506032526000,2.990526123046875,-0.01443282887339592,-9.695638656616211,-1.4934818744659424
1682880506049389000,3.00738916015625,-0.13775967061519623,-9.66616153717041,-1.6680703163146973
1682880506066273500,3.0242734375,-0.2463000863790512,-9.64111042022705,-1.7956697940826416
1682880506083147000,3.04114697265625,-0.3340960443019867,-9.618071556091309,-1.9018977880477905
1682880506100020200,3.058020263671875,-0.39374932646751404,-9.594067573547363,-2.0087180137634277
1682880506116894000,3.07489404296875,-0.41092872619628906,-9.566824913024902,-2.1314663887023926
1682880506133767700,3.091767578125,-0.37581780552864075,-9.536436080932617,-2.2696382999420166
1682880506150640600,3.108640625,-0.2907666862010956,-9.502685546875,-2.4187870025634766
1682880506167514400,3.125514404296875,-0.15721657872200012,-9.466797828674316,-2.567326545715332
1682880506184388400,3.142388427734375,0.0009256142657250166,-9.431709289550781,-2.6979575157165527
1682880506201248800,3.159248779296875,0.16086992621421814,-9.399079322814941,-2.8049156665802
1682880506218137900,3.176137939453125,0.3057580888271332,-9.370311737060547,-2.887885570526123
1682880506235009000,3.193009033203125,0.42184197902679443,-9.347630500793457,-2.946180582046509
1682880506251880200,3.209880126953125,0.5032482147216797,-9.33260726928711,-2.9808225631713867
1682880506268745700,3.226745849609375,0.5515148043632507,-9.325940132141113,-2.9931228160858154
1682880506285625000,3.243625,0.5778822302818298,-9.326278686523438,-2.987086534500122
1682880506302503000,3.2605029296875,0.5934699177742004,-9.331522941589355,-2.96759295463562
1682880506319377000,3.277376953125,0.6040405035018921,-9.340900421142578,-2.935786247253418
1682880506336250400,3.29425048828125,0.6089270114898682,-9.353506088256836,-2.8943474292755127
1682880506353120500,3.31112060546875,0.6051197648048401,-9.369451522827148,-2.8431169986724854
1682880506370000100,3.328000244140625,0.5890374183654785,-9.388492584228516,-2.783051013946533
1682880506386870800,3.344870849609375,0.5580775737762451,-9.409372329711914,-2.7181596755981445
1682880506403734000,3.361734130859375,0.5118100047111511,-9.430803298950195,-2.6521947383880615
1682880506420617700,3.37861767578125,0.45057740807533264,-9.451519012451172,-2.588798761367798
1682880506437491500,3.395491455078125,0.37623122334480286,-9.470382690429688,-2.531094551086426
1682880506454364700,3.41236474609375,0.29116109013557434,-9.486627578735352,-2.4809763431549072
1682880506471242000,3.429241943359375,0.19888998568058014,-9.499293327331543,-2.441309928894043
1682880506488111000,3.446111083984375,0.10346049070358276,-9.507511138916016,-2.415086507797241
1682880506504985300,3.4629853515625,0.011404556222259998,-9.510494232177734,-2.405508279800415
1682880506521848000,3.47984814453125,-0.06777551770210266,-9.508316040039062,-2.4131827354431152
1682880506538733000,3.496733154296875,-0.12486524879932404,-9.501651763916016,-2.4370360374450684
1682880506555605500,3.51360546875,-0.15534649789333344,-9.491004943847656,-2.476447105407715
1682880506572477400,3.5304775390625,-0.1640351563692093,-9.476116180419922,-2.5322811603546143
1682880506589356000,3.54735595703125,-0.16043415665626526,-9.456589698791504,-2.6044716835021973
1682880506606227000,3.56422705078125,-0.1517074853181839,-9.432340621948242,-2.6914801597595215
1682880506623100000,3.581099853515625,-0.13997416198253632,-9.403854370117188,-2.7899956703186035
1682880506639966700,3.597966796875,-0.12508992850780487,-9.37226390838623,-2.8950202465057373
1682880506656847600,3.61484765625,-0.10750793665647507,-9.33867359161377,-3.0022857189178467
1682880506673723000,3.631722900390625,-0.08951473236083984,-9.303324699401855,-3.110670328140259
1682880506690592800,3.6485927734375,-0.07152139395475388,-9.265618324279785,-3.221696376800537
1682880506707468000,3.665468017578125,-0.0588766410946846,-9.224526405334473,-3.3377766609191895
1682880506724341200,3.68234130859375,-0.04339657351374626,-9.179229736328125,-3.460634708404541
1682880506741215200,3.69921533203125,0.005426508840173483,-9.133641242980957,-3.5794808864593506
1682880506758088200,3.716088134765625,0.10417429357767105,-9.093764305114746,-3.67814040184021
1682880506774961400,3.73296142578125,0.24519774317741394,-9.06816291809082,-3.734224796295166
1682880506791836700,3.749836669921875,0.4002689719200134,-9.066803932189941,-3.724104404449463
1682880506808709400,3.76670947265625,0.5412830710411072,-9.093954086303711,-3.6391119956970215
1682880506825593000,3.783593017578125,0.6571978330612183,-9.14856243133545,-3.4796571731567383
1682880506842440700,3.800440673828125,0.7513960599899292,-9.225851058959961,-3.248875617980957
1682880506859329500,3.81732958984375,0.8728699088096619,-9.3186616897583,-2.938835859298706
1682880506876193000,3.834193115234375,1.0437026023864746,-9.414731979370117,-2.551394462585449
1682880506893077000,3.851076904296875,1.2364935874938965,-9.499582290649414,-2.113088846206665
1682880506909950500,3.867950439453125,1.411454439163208,-9.564783096313477,-1.6609760522842407
1682880506926813400,3.8848134765625,1.5510623455047607,-9.606412887573242,-1.2438420057296753
1682880506943700500,3.901700439453125,1.6423262357711792,-9.627076148986816,-0.9264364242553711
1682880506960570600,3.918570556640625,1.6822081804275513,-9.635171890258789,-0.7548258900642395
1682880506977444600,3.935444580078125,1.6664916276931763,-9.642237663269043,-0.6972629427909851
1682880506994307300,3.952307373046875,1.5707454681396484,-9.65953540802002,-0.6798847317695618
1682880507011192000,3.969192138671875,1.3743635416030884,-9.691938400268555,-0.64310222864151
1682880507028064800,3.986064697265625,1.1121790409088135,-9.731502532958984,-0.5450034737586975
1682880507044939000,4.00293896484375,0.8567007184028625,-9.765295028686523,-0.3757976293563843
1682880507061812500,4.0198125,0.6425979137420654,-9.787760734558105,-0.15138588845729828
1682880507078686000,4.03668603515625,0.42818284034729004,-9.80005168914795,0.10845153033733368
1682880507095559000,4.053558837890625,0.27240893244743347,-9.800315856933594,0.3401685059070587
1682880507112432600,4.0704326171875,0.28274476528167725,-9.794715881347656,0.46872949600219727
1682880507129306400,4.087306396484375,0.4098931849002838,-9.789528846740723,0.4829496145248413
1682880507146188800,4.104188720703125,0.5348616242408752,-9.785466194152832,0.44123998284339905
1682880507163053300,4.12105322265625,0.5743967294692993,-9.786054611206055,0.37326666712760925
1682880507179926800,4.1379267578125,0.5270740389823914,-9.791144371032715,0.30302610993385315
1682880507196790000,4.1547900390625,0.4309636354446411,-9.79740047454834,0.2476406991481781
1682880507213674200,4.17167431640625,0.27268272638320923,-9.803495407104492,0.23078083992004395
1682880507230547500,4.18854736328125,0.08279789239168167,-9.806517601013184,0.247945636510849
1682880507247421200,4.205421142578125,0.011597441509366035,-9.806984901428223,0.242959126830101
1682880507264295000,4.222294921875,0.10893575102090836,-9.806937217712402,0.21958664059638977
1682880507281165800,4.239165771484375,0.3019138276576996,-9.803289413452148,0.20125503838062286
1682880507298044200,4.256044189453125,0.47113415598869324,-9.797061920166016,0.17809654772281647
1682880507314915000,4.2729150390625,0.5737706422805786,-9.792319297790527,0.13193219900131226
1682880507331781600,4.28978173828125,0.6539010405540466,-9.787971496582031,0.06448221951723099
1682880507348658700,4.30665869140625,0.6916037201881409,-9.78558349609375,-0.013437487185001373
1682880507365537000,4.323537109375,0.6895936131477356,-9.784991264343262,-0.12047632783651352
1682880507382398700,4.340398681640625,0.6838104128837585,-9.782732009887695,-0.25821977853775024
1682880507399283000,4.357282958984375,0.6837313175201416,-9.778120040893555,-0.39625149965286255
1682880507416156700,4.37415673828125,0.6680954098701477,-9.773780822753906,-0.5128394365310669
1682880507433021200,4.391021240234375,0.6218103170394897,-9.7717866897583,-0.6013899445533752
1682880507449903400,4.4079033203125,0.5503737926483154,-9.771794319152832,-0.6672682166099548
1682880507466777000,4.424777099609375,0.4875342845916748,-9.770925521850586,-0.7262582778930664
1682880507483646500,4.441646484375,0.46187537908554077,-9.76658821105957,-0.7978226542472839
1682880507500521500,4.458521484375,0.4554343819618225,-9.76036548614502,-0.874039351940155
1682880507517401600,4.475401611328125,0.450411319732666,-9.75526237487793,-0.9317240118980408
1682880507534260200,4.49226025390625,0.45956215262413025,-9.751863479614258,-0.9623361229896545
1682880507551134000,4.509134033203125,0.4571404457092285,-9.749353408813477,-0.988561749458313
1682880507568018000,4.526017822265625,0.38783296942710876,-9.74796199798584,-1.0309932231903076
1682880507584891400,4.542891357421875,0.2800322473049164,-9.743565559387207,-1.1048320531845093
1682880507601765400,4.559765380859375,0.15172623097896576,-9.732956886291504,-1.2176412343978882
1682880507618639000,4.57663916015625,0.008729052729904652,-9.720332145690918,-1.3233214616775513
1682880507635500000,4.5935,-0.13976044952869415,-9.712735176086426,-1.3708995580673218
1682880507652387300,4.61038720703125,-0.28278595209121704,-9.705255508422852,-1.401493787765503
1682880507669259000,4.627259033203125,-0.37305471301078796,-9.701223373413086,-1.408260464668274
1682880507686133000,4.644133056640625,-0.31070855259895325,-9.711358070373535,-1.3524525165557861
1682880507703006500,4.66100634765625,-0.14606890082359314,-9.727095603942871,-1.264271855354309
1682880507719880000,4.6778798828125,0.0649442970752716,-9.741449356079102,-1.1558841466903687
1682880507736753400,4.69475341796875,0.290250301361084,-9.751387596130371,-1.030690312385559
1682880507753627100,4.711627197265625,0.520622193813324,-9.752158164978027,-0.9276247620582581
1682880507770503700,4.728503662109375,0.6932721734046936,-9.747607231140137,-0.8600148558616638
1682880507787373800,4.745373779296875,0.7636779546737671,-9.74578857421875,-0.8200750946998596
1682880507804247300,4.762247314453125,0.7748351693153381,-9.747010231018066,-0.7946922183036804
1682880507821121500,4.77912158203125,0.7500677108764648,-9.750808715820312,-0.7715280652046204
1682880507837991400,4.795991455078125,0.6835753321647644,-9.756416320800781,-0.762355387210846
1682880507854870800,4.812870849609375,0.5693046450614929,-9.763228416442871,-0.7690348029136658
1682880507871739400,4.829739501953125,0.4101201295852661,-9.77009391784668,-0.7830537557601929
1682880507888607500,4.846607421875,0.2306891679763794,-9.774029731750488,-0.8070064783096313
1682880507905478100,4.86347802734375,0.0592091828584671,-9.773385047912598,-0.8447235226631165
1682880507922362000,4.880362060546875,-0.10622298717498779,-9.768631935119629,-0.8936921954154968
1682880507939235600,4.897235595703125,-0.26802968978881836,-9.76039981842041,-0.9481068253517151
1682880507956107000,4.91410693359375,-0.4092347323894501,-9.75035572052002,-0.9996025562286377
1682880507972985000,4.930985107421875,-0.5374670028686523,-9.738646507263184,-1.0516767501831055
1682880507989856300,4.947856201171875,-0.6662052273750305,-9.723718643188477,-1.1142559051513672
1682880508006729700,4.964729736328125,-0.7936769723892212,-9.705437660217285,-1.187726378440857
1682880508023603500,4.981603515625,-0.9076278805732727,-9.684309005737305,-1.2753283977508545
1682880508040476400,4.998476318359375,-1.0016224384307861,-9.66054916381836,-1.3808231353759766
1682880508057349000,5.01534912109375,-1.0771701335906982,-9.633721351623535,-1.5057333707809448
1682880508074212900,5.032212890625,-1.1263552904129028,-9.603975296020508,-1.6526055335998535
1682880508091100400,5.049100341796875,-1.1429487466812134,-9.571412086486816,-1.8214954137802124
1682880508107963000,5.065962890625,-1.1340491771697998,-9.534969329833984,-2.0085909366607666
1682880508124841500,5.082841552734375,-1.1129456758499146,-9.493566513061523,-2.2067320346832275
1682880508141717800,5.0997177734375,-1.1027406454086304,-9.445412635803223,-2.4092049598693848
1682880508158591500,5.116591552734375,-1.1250252723693848,-9.391568183898926,-2.601708173751831
1682880508175471900,5.133471923828125,-1.1723848581314087,-9.338698387145996,-2.765927791595459
1682880508192340700,5.1503408203125,-1.2354555130004883,-9.290142059326172,-2.8988025188446045
1682880508209210000,5.167210205078125,-1.3183568716049194,-9.241659164428711,-3.01493239402771
1682880508226086000,5.1840859375,-1.425584077835083,-9.190574645996094,-3.1204404830932617
1682880508242958800,5.200958740234375,-1.5556288957595825,-9.138842582702637,-3.2090022563934326
1682880508259832600,5.21783251953125,-1.70260751247406,-9.088960647583008,-3.2753655910491943
1682880508276706000,5.2347060546875,-1.8588930368423462,-9.041874885559082,-3.3204071521759033
1682880508293580300,5.251580322265625,-2.0073659420013428,-9.003559112548828,-3.3380393981933594
1682880508310453000,5.268452880859375,-2.118253469467163,-8.980380058288574,-3.3319568634033203
1682880508327326700,5.28532666015625,-2.1632120609283447,-8.971837997436523,-3.3260741233825684
1682880508344203500,5.30220361328125,-2.129936456680298,-8.971052169799805,-3.349583148956299
1682880508361074200,5.31907421875,-2.0069942474365234,-8.982035636901855,-3.3957536220550537
1682880508377947100,5.335947021484375,-1.7956374883651733,-9.012622833251953,-3.4328513145446777
1682880508394822400,5.352822509765625,-1.5309269428253174,-9.057488441467285,-3.4430036544799805
1682880508411697000,5.36969677734375,-1.255428671836853,-9.107834815979004,-3.421600103378296
1682880508428569300,5.3865693359375,-1.0582404136657715,-9.154364585876465,-3.36360239982605
1682880508445439700,5.403439697265625,-0.8299127221107483,-9.21823501586914,-3.2513837814331055
1682880508462314800,5.420314697265625,-0.4797835350036621,-9.322123527526855,-3.0172717571258545
1682880508479185200,5.43718505859375,-0.10566002875566483,-9.458724021911621,-2.5995194911956787
1682880508496074000,5.454073974609375,0.20779824256896973,-9.5884370803833,-2.062725305557251
1682880508512935200,5.47093505859375,0.5093975067138672,-9.677337646484375,-1.5250509977340698
1682880508529809200,5.48780908203125,0.8156821131706238,-9.720170021057129,-1.0435928106307983
1682880508546682400,5.504682373046875,1.081648588180542,-9.729331016540527,-0.6374028325080872
1682880508563554000,5.521553955078125,1.2739241123199463,-9.721940040588379,-0.31161391735076904
1682880508580431400,5.538431396484375,1.4149051904678345,-9.707186698913574,-0.06868081539869308
1682880508597303000,5.555302978515625,1.5114731788635254,-9.692237854003906,0.11005571484565735
1682880508614176500,5.572176513671875,1.5613399744033813,-9.68226432800293,0.22820338606834412
1682880508631042000,5.5890419921875,1.565940022468567,-9.679620742797852,0.298177033662796
1682880508647923200,5.605923095703125,1.5352864265441895,-9.682991981506348,0.3444846272468567
1682880508664797000,5.622796875,1.480927586555481,-9.690109252929688,0.3804529011249542
1682880508681667800,5.639667724609375,1.4272102117538452,-9.696579933166504,0.4189945459365845
1682880508698558200,5.65655810546875,1.3880118131637573,-9.700247764587402,0.46342137455940247
1682880508715417900,5.67341796875,1.3468300104141235,-9.704294204711914,0.49884748458862305
1682880508732291000,5.690291015625,1.2733043432235718,-9.715024948120117,0.48280009627342224
1682880508749164500,5.70716455078125,1.1624213457107544,-9.73325252532959,0.3856137990951538
1682880508766038500,5.72403857421875,1.041178584098816,-9.752123832702637,0.21941180527210236
1682880508782911200,5.7409111328125,0.9300276041030884,-9.765789985656738,0.02331036515533924
1682880508799786000,5.757785888671875,0.8573302626609802,-9.770962715148926,-0.1714734137058258
1682880508816648400,5.7746484375,0.9048313498497009,-9.761728286743164,-0.355051726102829
1682880508833532400,5.791532470703125,1.0954848527908325,-9.733880996704102,-0.5362583994865417
1682880508850405400,5.8084052734375,1.3077573776245117,-9.695481300354004,-0.7235660552978516
1682880508867279000,5.825279052734375,1.4576330184936523,-9.66103458404541,-0.8808161020278931
1682880508884153000,5.842153076171875,1.5486161708831787,-9.64140510559082,-0.938728392124176
1682880508901026800,5.85902685546875,1.597544550895691,-9.639966011047363,-0.8689206838607788
1682880508917899500,5.8758994140625,1.6042721271514893,-9.65194320678711,-0.7088136672973633
1682880508934773800,5.892773681640625,1.5815773010253906,-9.668381690979004,-0.5070789456367493
1682880508951644400,5.90964453125,1.57906174659729,-9.678053855895996,-0.2791776657104492
1682880508968523300,5.926523193359375,1.5358465909957886,-9.688838958740234,-0.06073547154664993
1682880508985393400,5.943393310546875,1.5482743978500366,-9.68703842163086,0.01622236892580986
1682880509002267600,5.960267578125,1.8171244859695435,-9.639472961425781,-0.12138155102729797
1682880509019140900,5.977140869140625,2.135148048400879,-9.57082748413086,-0.2766188383102417
1682880509036004400,5.99400439453125,2.3139429092407227,-9.524575233459473,-0.4052838981151581
1682880509052888000,6.01088818359375,2.4118010997772217,-9.495363235473633,-0.5073489546775818
1682880509069761300,6.02776123046875,2.509352684020996,-9.465155601501465,-0.591696560382843
1682880509086635000,6.044635009765625,2.629323959350586,-9.426013946533203,-0.687764585018158
1682880509103508700,6.0615087890625,2.7753593921661377,-9.374551773071289,-0.8070083856582642
1682880509120381700,6.078381591796875,2.9216725826263428,-9.316400527954102,-0.9511250853538513
1682880509137255700,6.095255615234375,3.0155088901519775,-9.269145011901855,-1.1071419715881348
1682880509154129000,6.11212890625,3.0228161811828613,-9.243958473205566,-1.2837125062942505
1682880509171002600,6.129002685546875,2.9368653297424316,-9.241750717163086,-1.4835649728775024
1682880509187876000,6.1458759765625,2.763932228088379,-9.258309364318848,-1.6972012519836426
1682880509204749000,6.1627490234375,2.5051534175872803,-9.291203498840332,-1.906268835067749
1682880509221620500,6.179620361328125,2.166471481323242,-9.338446617126465,-2.0822877883911133
1682880509238496800,6.196496826171875,1.7734744548797607,-9.39169979095459,-2.210632085800171
1682880509255372500,6.21337255859375,1.3791735172271729,-9.43466567993164,-2.3067476749420166
1682880509272244000,6.230243896484375,1.0307519435882568,-9.458720207214355,-2.388780117034912
1682880509289117200,6.2471171875,0.7397492527961731,-9.468033790588379,-2.4587044715881348
1682880509305991200,6.2639912109375,0.4933496415615082,-9.46998119354248,-2.5124049186706543
1682880509322863600,6.280863525390625,0.2641945481300354,-9.467437744140625,-2.556159734725952
1682880509339726000,6.29772607421875,0.0266183540225029,-9.458205223083496,-2.6034090518951416
1682880509356612400,6.3146123046875,-0.22892512381076813,-9.438368797302246,-2.6647558212280273
1682880509373485300,6.3314853515625,-0.4903094172477722,-9.40766716003418,-2.7370636463165283
1682880509390358300,6.348358154296875,-0.733357310295105,-9.36830997467041,-2.816575050354004
1682880509407232000,6.36523193359375,-0.9464030265808105,-9.322681427001953,-2.903109073638916
1682880509424105200,6.382105224609375,-1.1388046741485596,-9.270552635192871,-2.99934983253479
1682880509440979000,6.39897900390625,-1.2301408052444458,-9.214944839477539,-3.1317219734191895
1682880509457852000,6.415851806640625,-1.1310442686080933,-9.169943809509277,-3.296814203262329
1682880509474726000,6.432725830078125,-0.8933064341545105,-9.140360832214355,-3.448469877243042
1682880509491596500,6.449596435546875,-0.6426188349723816,-9.114548683166504,-3.570460557937622
1682880509508475600,6.4664755859375,-0.4553557336330414,-9.08553695678711,-3.6717562675476074
1682880509525346300,6.48334619140625,-0.2803892195224762,-9.059028625488281,-3.753863573074341
1682880509542222000,6.50022216796875,-0.06472524255514145,-9.031876564025879,-3.8284642696380615
1682880509559090700,6.517090576171875,0.13064628839492798,-8.988347053527832,-3.9279327392578125
1682880509575956500,6.53395654296875,0.3339401185512543,-8.931171417236328,-4.044597148895264
1682880509592840000,6.55083984375,0.7602949142456055,-8.87452220916748,-4.1110758781433105
1682880509609714000,6.5677138671875,1.4601452350616455,-8.815885543823242,-4.047748565673828
1682880509626587400,6.58458740234375,2.1458122730255127,-8.766548156738281,-3.844374895095825
1682880509643458600,6.60145849609375,2.586803913116455,-8.780742645263672,-3.5274786949157715
1682880509660336400,6.61833642578125,2.9609179496765137,-8.809698104858398,-3.1397922039031982
1682880509677207800,6.635207763671875,3.3891608715057373,-8.790162086486816,-2.735456705093384
1682880509694070800,6.65207080078125,3.8541858196258545,-8.71760082244873,-2.320521116256714
1682880509710955300,6.668955322265625,4.258725166320801,-8.621557235717773,-1.9411675930023193
1682880509727828200,6.685828125,4.447032451629639,-8.569927215576172,-1.7367631196975708
1682880509744692200,6.702692138671875,4.348754405975342,-8.61393928527832,-1.7676275968551636
1682880509761574100,6.71957421875,4.067085266113281,-8.718327522277832,-1.9198193550109863
1682880509778450700,6.73645068359375,3.7696645259857178,-8.814835548400879,-2.0795278549194336
1682880509795311600,6.7533115234375,3.5506880283355713,-8.877785682678223,-2.194002389907837
1682880509812196000,6.770196044921875,3.418952703475952,-8.923897743225098,-2.216060161590576
1682880509829069300,6.7870693359375,3.2940831184387207,-9.008999824523926,-2.055004596710205
1682880509845941500,6.80394140625,3.146451473236084,-9.126111030578613,-1.7464350461959839
1682880509862816500,6.82081640625,2.9832348823547363,-9.24049186706543,-1.3963311910629272
1682880509879690200,6.837690185546875,2.786298990249634,-9.346291542053223,-1.0580538511276245
1682880509896563200,6.854563232421875,2.507699966430664,-9.454010963439941,-0.7544583678245544
1682880509913437200,6.871437255859375,2.172738790512085,-9.553356170654297,-0.4987192749977112
1682880509930310100,6.88831005859375,1.8039827346801758,-9.638479232788086,-0.28551429510116577
1682880509947181600,6.905181640625,1.3798919916152954,-9.711841583251953,-0.11018171906471252
1682880509964057600,6.9220576171875,0.9195147752761841,-9.766804695129395,0.012074501253664494
1682880509980928800,6.9389287109375,0.7086917757987976,-9.784366607666016,0.006197464186698198
1682880509997806800,6.955806884765625,0.8809881806373596,-9.769125938415527,-0.15536139905452728
1682880510014677800,6.972677734375,1.2121165990829468,-9.72579574584961,-0.41928279399871826
1682880510031548700,6.989548583984375,1.45237398147583,-9.674290657043457,-0.731322705745697
1682880510048427800,7.006427734375,1.4870586395263672,-9.642617225646973,-1.022111415863037
1682880510065298400,7.02329833984375,1.3574891090393066,-9.636916160583496,-1.2341794967651367
1682880510082172200,7.040172119140625,1.171487808227539,-9.640043258666992,-1.3904370069503784
1682880510099043800,7.0570439453125,1.0762518644332886,-9.631200790405273,-1.5224244594573975
1682880510115912200,7.073912109375,1.1185600757598877,-9.618254661560059,-1.5729303359985352
1682880510132792300,7.090792236328125,1.1846981048583984,-9.613753318786621,-1.5518862009048462
1682880510149665800,7.107665771484375,1.2478622198104858,-9.594436645507812,-1.62041437625885
1682880510166539500,7.12453955078125,1.1851683855056763,-9.585832595825195,-1.7156152725219727
1682880510183413200,7.141413330078125,1.0274306535720825,-9.611958503723145,-1.6705615520477295
1682880510200286200,7.1582861328125,0.9826842546463013,-9.649868965148926,-1.4664524793624878
1682880510217160200,7.17516015625,1.0636266469955444,-9.67943000793457,-1.1888916492462158
1682880510234033700,7.19203369140625,1.224531888961792,-9.690431594848633,-0.9122390747070312
1682880510250907100,7.2089072265625,1.4281096458435059,-9.682047843933105,-0.6742249131202698
1682880510267780000,7.225780029296875,1.6595327854156494,-9.65574836730957,-0.498584508895874
1682880510284654000,7.242654052734375,1.9126825332641602,-9.612808227539062,-0.4143266975879669
1682880510301524700,7.259524658203125,2.1521589756011963,-9.560389518737793,-0.45087969303131104
1682880510318404000,7.276404052734375,2.3059322834014893,-9.51527214050293,-0.6151332259178162
1682880510335272000,7.29327197265625,2.3446853160858154,-9.485276222229004,-0.8764254450798035
1682880510352150800,7.31015087890625,2.274061441421509,-9.469018936157227,-1.1842433214187622
1682880510369021400,7.327021484375,2.100285530090332,-9.463747024536133,-1.504124402999878
1682880510385885000,7.343885009765625,1.8372581005096436,-9.465094566345215,-1.809029459953308
1682880510402768400,7.360768310546875,1.52616286277771,-9.467326164245605,-2.0680179595947266
1682880510419642400,7.377642333984375,1.212608814239502,-9.470294952392578,-2.253708600997925
1682880510436505000,7.394505126953125,0.9166417121887207,-9.474434852600098,-2.372969150543213
1682880510453387300,7.41138720703125,0.618680477142334,-9.47607135772705,-2.461177110671997
1682880510470264800,7.428264892578125,0.29901084303855896,-9.470892906188965,-2.5394649505615234
1682880510487136300,7.44513623046875,-0.058021340519189835,-9.453909873962402,-2.6184637546539307
1682880510504009500,7.462009521484375,-0.4553753137588501,-9.421069145202637,-2.696707248687744
1682880510520881700,7.478881591796875,-0.8691442012786865,-9.366632461547852,-2.7833211421966553
1682880510537758200,7.49575830078125,-1.2494688034057617,-9.2888822555542,-2.8968255519866943
1682880510554630700,7.512630615234375,-1.5493134260177612,-9.196453094482422,-3.0431876182556152
1682880510571501600,7.52950146484375,-1.7489566802978516,-9.100089073181152,-3.219576120376587
1682880510588380000,7.5463798828125,-1.8416554927825928,-9.006258964538574,-3.4251601696014404
1682880510605250300,7.563250244140625,-1.8210376501083374,-8.917011260986328,-3.6615350246429443
1682880510622124000,7.5801240234375,-1.7105158567428589,-8.830489158630371,-3.915703058242798
1682880510638997800,7.596997802734375,-1.6825339794158936,-8.719566345214844,-4.168256759643555
1682880510655861800,7.61386181640625,-1.6253880262374878,-8.64555549621582,-4.341497421264648
1682880510672744700,7.63074462890625,-1.4415901899337769,-8.638465881347656,-4.419824600219727
1682880510689618400,7.647618408203125,-1.2226650714874268,-8.647167205810547,-4.4685282707214355
1682880510706491600,7.66449169921875,-0.8913723826408386,-8.689784049987793,-4.464216709136963
1682880510723365400,7.681365478515625,-0.3326370120048523,-8.807371139526367,-4.307631492614746
1682880510740238300,7.69823828125,0.3039681017398834,-8.966751098632812,-3.9675047397613525
1682880510757112300,7.7151123046875,0.8713377714157104,-9.126256942749023,-3.4911794662475586
1682880510773983000,7.73198291015625,1.3071386814117432,-9.284734725952148,-2.8846535682678223
1682880510790862300,7.7488623046875,1.6871694326400757,-9.414651870727539,-2.1803455352783203
1682880510807732500,7.765732421875,2.0455446243286133,-9.482978820800781,-1.4577323198318481
1682880510824606500,7.7826064453125,2.319658041000366,-9.495774269104004,-0.827994704246521
1682880510841482500,7.799482421875,2.440647602081299,-9.4930419921875,-0.4018978476524353
1682880510858350600,7.8163505859375,2.4334018230438232,-9.502303123474121,-0.14456626772880554
1682880510875226400,7.833226318359375,2.3549604415893555,-9.522971153259277,0.057543035596609116
1682880510892100400,7.850100341796875,2.2225332260131836,-9.55224323272705,0.22609049081802368
1682880510908972000,7.866971923828125,2.0354061126708984,-9.590084075927734,0.3514726459980011
1682880510925836800,7.8838369140625,1.8086656332015991,-9.632380485534668,0.42671579122543335
1682880510942720500,7.900720458984375,1.5301845073699951,-9.678614616394043,0.46806496381759644
1682880510959594000,7.917593994140625,1.217448353767395,-9.721920013427734,0.4880519211292267
1682880510976467700,7.9344677734375,0.914775013923645,-9.754789352416992,0.4933483302593231
1682880510993341700,7.951341796875,0.6785773038864136,-9.773683547973633,0.5007812976837158
1682880511010214700,7.968214599609375,0.5314920544624329,-9.781100273132324,0.5326421856880188
1682880511027089200,7.985089111328125,0.43276676535606384,-9.78343677520752,0.5772398114204407
1682880511043965200,8.001965087890625,0.33562231063842773,-9.787094116210938,0.5798783302307129
1682880511060835600,8.018835693359375,0.19010965526103973,-9.796651840209961,0.4749579429626465
1682880511077698000,8.035697998046874,-0.056957729160785675,-9.806260108947754,0.264820396900177
1682880511094582300,8.052582275390625,-0.3847067654132843,-9.802427291870117,-0.022736607119441032
1682880511111453700,8.06945361328125,-0.6003205180168152,-9.783583641052246,-0.396527498960495
1682880511128319500,8.086319580078126,-0.5586342215538025,-9.759108543395996,-0.8269635438919067
1682880511145202700,8.10320263671875,-0.4293055236339569,-9.72165584564209,-1.24146568775177
1682880511162076400,8.120076416015625,-0.4582802355289459,-9.673380851745605,-1.565831184387207
1682880511178939400,8.136939453125,-0.6096912622451782,-9.631501197814941,-1.7602747678756714
1682880511195812900,8.153812744140625,-0.7146493792533875,-9.603608131408691,-1.8697911500930786
1682880511212696300,8.1706962890625,-0.6715896129608154,-9.598705291748047,-1.9104851484298706
1682880511229559600,8.1875595703125,-0.52036452293396,-9.644013404846191,-1.7199854850769043
1682880511246443800,8.20444384765625,-0.2592015266418457,-9.71679973602295,-1.323917031288147
1682880511263317800,8.22131787109375,0.03314465284347534,-9.761587142944336,-0.9728483557701111
1682880511280190500,8.2381904296875,0.32661524415016174,-9.769681930541992,-0.826309859752655
1682880511297064400,8.255064453125,0.6086127161979675,-9.75560474395752,-0.8329879641532898
1682880511313937700,8.271937744140626,0.8388383984565735,-9.736490249633789,-0.8562899827957153
1682880511330811400,8.288811279296874,1.0341997146606445,-9.718721389770508,-0.8444072604179382
1682880511347684400,8.305684326171875,1.1882884502410889,-9.704639434814453,-0.8025301098823547
1682880511364556000,8.32255615234375,1.2863556146621704,-9.696527481079102,-0.7475147843360901
1682880511381431300,8.339431396484375,1.3274328708648682,-9.694863319396973,-0.6954655051231384
1682880511398308000,8.35630810546875,1.3216655254364014,-9.697525978088379,-0.6688136458396912
1682880511415178800,8.3731787109375,1.2861720323562622,-9.700032234191895,-0.7009072303771973
1682880511432049400,8.39004931640625,1.2253217697143555,-9.70136833190918,-0.7862228155136108
1682880511448928300,8.40692822265625,1.1385993957519531,-9.702432632446289,-0.8958274126052856
1682880511465789000,8.423788818359375,1.0267895460128784,-9.704048156738281,-1.0066163539886475
1682880511482672400,8.44067236328125,0.8946857452392578,-9.705379486083984,-1.1141185760498047
1682880511499546400,8.45754638671875,0.7594562768936157,-9.704011917114258,-1.221269965171814
1682880511516419800,8.474419921875,0.6448906064033508,-9.696832656860352,-1.3385282754898071
1682880511533293300,8.491293212890625,0.5605036020278931,-9.681439399719238,-1.4804352521896362
1682880511550166300,8.508166259765625,0.49011510610580444,-9.656255722045898,-1.6591039896011353
1682880511567029800,8.52502978515625,0.4099830985069275,-9.620257377624512,-1.8758078813552856
1682880511583913700,8.541913818359374,0.30267849564552307,-9.573747634887695,-2.118461847305298
1682880511600774700,8.558774658203125,0.16064904630184174,-9.519115447998047,-2.3657431602478027
1682880511617648400,8.5756484375,-0.020834507420659065,-9.458812713623047,-2.601259708404541
1682880511634538500,8.59253857421875,-0.24252204596996307,-9.394430160522461,-2.814605712890625
1682880511651406600,8.609406494140625,-0.4924694895744324,-9.324268341064453,-3.0085880756378174
1682880511668282400,8.626282470703124,-0.7489342093467712,-9.244401931762695,-3.196291208267212
1682880511685154300,8.643154296875,-0.9910182952880859,-9.1558256149292,-3.3800697326660156
1682880511702026800,8.66002685546875,-1.2043464183807373,-9.06643009185791,-3.5476086139678955
1682880511718903600,8.676903564453125,-1.3822789192199707,-8.989134788513184,-3.677074909210205
1682880511735765000,8.693764892578125,-1.5233973264694214,-8.929717063903809,-3.7650365829467773
1682880511752648400,8.7106484375,-1.6341062784194946,-8.874802589416504,-3.8475565910339355
1682880511769522400,8.7275224609375,-1.711877703666687,-8.820209503173828,-3.9382097721099854
1682880511786395600,8.744395751953125,-1.7435842752456665,-8.784770965576172,-4.0029802322387695
1682880511803269400,8.761269287109375,-1.7201006412506104,-8.770544052124023,-4.0441203117370605
1682880511820152600,8.778152587890625,-1.6423799991607666,-8.768799781799316,-4.080056667327881
1682880511837016300,8.795016357421876,-1.5270448923110962,-8.777530670166016,-4.105995178222656
1682880511853890000,8.81189013671875,-1.385379672050476,-8.789202690124512,-4.131193161010742
1682880511870763800,8.828763671875,-1.2177575826644897,-8.799175262451172,-4.162655353546143
1682880511887636500,8.845636474609375,-0.9468957781791687,-8.814804077148438,-4.1998515129089355
1682880511904510000,8.862510009765625,-0.6529653072357178,-8.869099617004395,-4.141114234924316
1682880511921383400,8.879383544921875,-0.44984152913093567,-9.011125564575195,-3.8514091968536377
1682880511938257700,8.896257568359376,-0.1920836716890335,-9.213693618774414,-3.3625965118408203
1682880511955130600,8.913130615234374,0.22702531516551971,-9.410691261291504,-2.7610607147216797
1682880511972004400,8.93000439453125,0.7191018462181091,-9.551202774047852,-2.119795322418213
1682880511988877800,8.9468779296875,1.147504448890686,-9.616138458251953,-1.565006136894226
1682880512005740800,8.96374072265625,1.4735981225967407,-9.63231372833252,-1.1327691078186035
1682880512022624300,8.980624267578126,1.7068108320236206,-9.62700080871582,-0.8023529052734375
1682880512039508200,8.99750830078125,1.8577903509140015,-9.616662979125977,-0.551834225654602
1682880512056371700,9.014371826171875,1.9135117530822754,-9.614469528198242,-0.36954784393310547
1682880512073245700,9.03124560546875,1.8857736587524414,-9.623359680175781,-0.26632869243621826
1682880512090118700,9.04811865234375,1.7956323623657227,-9.641984939575195,-0.20968350768089294
1682880512106992000,9.0649921875,1.6562589406967163,-9.667684555053711,-0.16965609788894653
1682880512123865600,9.081865478515626,1.4886672496795654,-9.695255279541016,-0.1483757346868515
1682880512140739000,9.098739013671874,1.3293520212173462,-9.718503952026367,-0.14006859064102173
1682880512157600000,9.11560009765625,1.2007631063461304,-9.73529052734375,-0.13574282824993134
1682880512174486300,9.132486328125,1.0951734781265259,-9.747547149658203,-0.14850349724292755
1682880512191359700,9.14935986328125,0.9893249273300171,-9.757790565490723,-0.2070583999156952
1682880512208233500,9.1662333984375,0.8807427287101746,-9.764998435974121,-0.3244175612926483
1682880512225106700,9.183106689453124,0.7663447260856628,-9.767127990722656,-0.5020357966423035
1682880512241980000,9.19997998046875,0.6300809383392334,-9.763510704040527,-0.7162255048751831
1682880512258854100,9.216854248046875,0.4869919419288635,-9.752140045166016,-0.9459046721458435
1682880512275712300,9.233712158203126,0.4578007459640503,-9.728093147277832,-1.1792984008789062
1682880512292600600,9.2506005859375,0.6332555413246155,-9.686603546142578,-1.4159129858016968
1682880512309463300,9.26746337890625,0.8542522192001343,-9.632820129394531,-1.6477676630020142
1682880512326347500,9.284347412109375,0.9634922742843628,-9.59892749786377,-1.780003309249878
1682880512343221500,9.301221435546875,1.01840341091156,-9.596571922302246,-1.7620347738265991
1682880512360084200,9.318084228515625,1.0861557722091675,-9.611668586730957,-1.6346958875656128
1682880512376968000,9.334968017578126,1.1520315408706665,-9.63280200958252,-1.4553661346435547
1682880512393831200,9.3518310546875,1.1979848146438599,-9.656511306762695,-1.246099591255188
1682880512410705200,9.368705078125,1.1947139501571655,-9.683164596557617,-1.0223029851913452
1682880512427588400,9.38558837890625,1.0743012428283691,-9.712774276733398,-0.8625555634498596
1682880512444462300,9.40246240234375,1.0630162954330444,-9.706177711486816,-0.9467072486877441
1682880512461335600,9.41933544921875,1.206131100654602,-9.662800788879395,-1.1881157159805298
1682880512478209300,9.436209228515626,1.2769825458526611,-9.626136779785156,-1.3938918113708496
1682880512495082200,9.453082275390624,1.235944151878357,-9.616643905639648,-1.4928935766220093
1682880512511942700,9.469942626953125,1.256821632385254,-9.61355972290039,-1.4953263998031616
1682880512528829400,9.486829345703125,1.3765188455581665,-9.601287841796875,-1.468535304069519
1682880512545710800,9.5037109375,1.563286542892456,-9.575149536132812,-1.4521502256393433
1682880512562576100,9.520576171875,1.7794393301010132,-9.53514575958252,-1.4665313959121704
1682880512579450000,9.5374501953125,1.9673559665679932,-9.489614486694336,-1.5207997560501099
1682880512596323600,9.554323486328125,2.0882279872894287,-9.446978569030762,-1.6217323541641235
1682880512613186600,9.5711865234375,2.130689859390259,-9.41327953338623,-1.756829023361206
1682880512630070300,9.5880703125,2.090559720993042,-9.39305305480957,-1.9068922996520996
1682880512646944000,9.604944091796876,1.9661955833435059,-9.386436462402344,-2.065183401107788
1682880512663817200,9.621817138671876,1.7621281147003174,-9.390318870544434,-2.2255210876464844
1682880512680691500,9.63869140625,1.4976465702056885,-9.400294303894043,-2.3722681999206543
1682880512697564400,9.655564453125,1.2066434621810913,-9.413068771362305,-2.4848036766052246
1682880512714438000,9.67243798828125,0.9248781204223633,-9.425374984741211,-2.5579323768615723
1682880512731311600,9.6893115234375,0.6694220304489136,-9.435956001281738,-2.598212242126465
1682880512748184600,9.7061845703125,0.4461694657802582,-9.443821907043457,-2.6174933910369873
1682880512765058000,9.72305810546875,0.25607240200042725,-9.445890426635742,-2.635467767715454
1682880512781932300,9.739932373046875,0.08667562156915665,-9.442383766174316,-2.6589431762695312
1682880512798803000,9.756802978515625,-0.07695988565683365,-9.434189796447754,-2.688166618347168
1682880512815669200,9.773669189453125,-0.2486528605222702,-9.419394493103027,-2.729336738586426
1682880512832552200,9.79055224609375,-0.44083505868911743,-9.39660930633545,-2.7830798625946045
1682880512849425700,9.80742578125,-0.6569581031799316,-9.367109298706055,-2.839334011077881
1682880512866299400,9.82429931640625,-0.8884025812149048,-9.33225154876709,-2.890662670135498
1682880512883173400,9.84117333984375,-1.1194483041763306,-9.294219017028809,-2.932647705078125
1682880512900046300,9.85804638671875,-1.332768201828003,-9.257548332214355,-2.95933198928833
1682880512916920000,9.874920166015626,-1.5059767961502075,-9.225174903869629,-2.9772982597351074
1682880512933793500,9.89179345703125,-1.6155290603637695,-9.197027206420898,-3.0068094730377197
1682880512950667000,9.9086669921875,-1.6491563320159912,-9.16834545135498,-3.075361728668213
1682880512967540000,9.9255400390625,-1.6156758069992065,-9.136205673217773,-3.186762571334839
1682880512984414000,9.9424140625,-1.5342673063278198,-9.100994110107422,-3.3247644901275635
1682880513001284900,9.959284912109375,-1.4021822214126587,-9.061758041381836,-3.4863393306732178
1682880513018163700,9.976163818359375,-1.2244081497192383,-9.012775421142578,-3.675161361694336
1682880513035031600,9.993031494140626,-1.1529219150543213,-8.92431640625,-3.906850814819336
1682880513051910400,10.009910400390625,-1.179793357849121,-8.801438331604004,-4.168798923492432
1682880513068781000,10.026781005859375,-0.7993939518928528,-8.74228572845459,-4.378304481506348
1682880513085666300,10.043666259765626,0.0029867577832192183,-8.796862602233887,-4.341811180114746
1682880513102528000,10.060528076171876,0.7774890661239624,-8.893770217895508,-4.066015243530273
1682880513119401700,10.077401611328124,1.2491439580917358,-9.001246452331543,-3.695040225982666
1682880513136275200,10.094275146484375,1.6114996671676636,-9.123849868774414,-3.224055528640747
1682880513153147100,10.111147216796875,2.0328643321990967,-9.212752342224121,-2.688638925552368
1682880513170024200,10.128024169921876,2.511181354522705,-9.233682632446289,-2.160828113555908
1682880513186895600,10.1448955078125,2.9527180194854736,-9.198511123657227,-1.704390048980713
1682880513203769000,10.16176904296875,3.2293899059295654,-9.159128189086914,-1.3847472667694092
1682880513220643000,10.17864306640625,3.317070722579956,-9.153411865234375,-1.2034151554107666
1682880513237516000,10.19551611328125,3.233794927597046,-9.198604583740234,-1.079048991203308
1682880513254389800,10.2123896484375,3.01731538772583,-9.280574798583984,-1.0014219284057617
1682880513271260700,10.2292607421875,2.7721428871154785,-9.360013961791992,-0.9702942967414856
1682880513288139500,10.246139404296875,2.5747084617614746,-9.419621467590332,-0.9368590712547302
1682880513305009700,10.263009765625,2.375561475753784,-9.477029800415039,-0.8824560046195984
1682880513321883400,10.27988330078125,2.0406382083892822,-9.560388565063477,-0.8190762400627136
1682880513338757000,10.296757080078125,1.6285405158996582,-9.645392417907715,-0.7418769001960754
1682880513355623200,10.313623046875,1.2295669317245483,-9.71159553527832,-0.6396716833114624
1682880513372504000,10.330504150390626,0.8588010668754578,-9.759292602539062,-0.5047612190246582
1682880513389377500,10.34737744140625,0.5147941708564758,-9.789860725402832,-0.36022183299064636
1682880513406251000,10.3642509765625,0.21040299534797668,-9.804267883300781,-0.2611314058303833
1682880513423124500,10.38112451171875,-0.013992095366120338,-9.806035041809082,-0.27852803468704224
1682880513440000300,10.398000244140626,-0.09526927024126053,-9.799084663391113,-0.45272624492645264
1682880513456858600,10.414858642578125,0.005174785852432251,-9.78085708618164,-0.7555930018424988
1682880513473745000,10.431744873046876,0.2453918606042862,-9.737545013427734,-1.1645265817642212
1682880513490613800,10.44861376953125,0.4743688404560089,-9.661480903625488,-1.633059024810791
1682880513507491600,10.46549169921875,0.5354254841804504,-9.580856323242188,-2.03877854347229
1682880513524365600,10.482365478515625,0.4688560962677002,-9.532312393188477,-2.2696545124053955
1682880513541231600,10.499231689453126,0.39369362592697144,-9.509328842163086,-2.3777763843536377
1682880513558109200,10.516109130859375,0.3791176974773407,-9.4938325881958,-2.441213607788086
1682880513574986000,10.532986083984374,0.4046010375022888,-9.519721031188965,-2.3339548110961914
1682880513591873000,10.549873046875,0.4455467462539673,-9.596693992614746,-1.9852139949798584
1682880513608732700,10.566732666015625,0.5379801392555237,-9.65534496307373,-1.6495425701141357
1682880513625606400,10.5836064453125,0.6662926077842712,-9.675132751464844,-1.4778361320495605
1682880513642468900,10.60046875,0.7303032279014587,-9.682250022888184,-1.3988569974899292
1682880513659353000,10.61735302734375,0.7241467237472534,-9.699935913085938,-1.2739653587341309
1682880513676226600,10.6342265625,0.7640060186386108,-9.721341133117676,-1.0714073181152344
1682880513693100300,10.651100341796875,0.8724128007888794,-9.733439445495605,-0.8574216961860657
1682880513709973500,10.667973388671875,1.0175827741622925,-9.734389305114746,-0.665071427822113
1682880513726847200,10.68484716796875,1.1757020950317383,-9.725740432739258,-0.5136510133743286
1682880513743720700,10.701720703125,1.342690348625183,-9.708488464355469,-0.4225277006626129
1682880513760594400,10.718594482421874,1.5215976238250732,-9.682616233825684,-0.40965914726257324
1682880513777467400,10.73546728515625,1.6738812923431396,-9.653443336486816,-0.49525538086891174
1682880513794340900,10.7523408203125,1.7474627494812012,-9.630131721496582,-0.6656160950660706
1682880513811214800,10.76921484375,1.728926420211792,-9.616983413696289,-0.8721116781234741
1682880513828088300,10.78608837890625,1.6283514499664307,-9.612951278686523,-1.0843223333358765
1682880513844961300,10.802961181640624,1.4674125909805298,-9.612290382385254,-1.2987213134765625
1682880513861835300,10.819835205078125,1.2743258476257324,-9.60975456237793,-1.504938006401062
1682880513878708700,10.836708740234375,1.0741353034973145,-9.606399536132812,-1.6731570959091187
1682880513895568100,10.853568115234374,0.8770566582679749,-9.603211402893066,-1.801446795463562
1682880513912455200,10.870455078125,0.6712399125099182,-9.597819328308105,-1.9150476455688477
1682880513929329000,10.887328857421876,0.44367095828056335,-9.58841609954834,-2.0252296924591064
1682880513946202600,10.90420263671875,0.19220033288002014,-9.573973655700684,-2.1303060054779053
1682880513963076000,10.921076171875,-0.0768236443400383,-9.552390098571777,-2.232048749923706
1682880513979949600,10.937949462890625,-0.35570135712623596,-9.5206880569458,-2.3379640579223633
1682880513996812500,10.9548125,-0.6363121867179871,-9.478885650634766,-2.4458067417144775
1682880514013696300,10.9716962890625,-0.9089520573616028,-9.429394721984863,-2.5488126277923584
1682880514030570000,10.988570068359374,-1.1644245386123657,-9.375279426574707,-2.6427958011627197
1682880514047443000,11.00544287109375,-1.39182448387146,-9.317113876342773,-2.736844301223755
1682880514064317000,11.02231689453125,-1.5704487562179565,-9.254939079284668,-2.8488404750823975
1682880514081190400,11.0391904296875,-1.6739813089370728,-9.192429542541504,-2.988835573196411
1682880514098064000,11.05606396484375,-1.690741777420044,-9.135210990905762,-3.150465488433838
1682880514114937000,11.07293701171875,-1.638313889503479,-9.085177421569824,-3.3183751106262207
1682880514131808000,11.08980810546875,-1.5537397861480713,-9.039338111877441,-3.480282783508301
1682880514148686600,11.1066865234375,-1.4540750980377197,-8.996466636657715,-3.6311697959899902
1682880514165554700,11.1235546875,-1.3257708549499512,-8.961292266845703,-3.764796733856201
1682880514182434300,11.140434326171874,-1.2074658870697021,-8.93310546875,-3.870115280151367
1682880514199304700,11.1573046875,-1.2349542379379272,-8.892484664916992,-3.95407772064209
1682880514216175400,11.17417529296875,-1.3710979223251343,-8.833203315734863,-4.041132926940918
1682880514233055000,11.191054931640625,-1.1793103218078613,-8.816248893737793,-4.1375250816345215
1682880514249924600,11.207924560546875,-0.5249946117401123,-8.909038543701172,-4.073022365570068
1682880514266794800,11.224794677734375,0.21696971356868744,-9.060016632080078,-3.7556793689727783
1682880514283676000,11.241676025390625,0.7516128420829773,-9.220396041870117,-3.2642760276794434
1682880514300545800,11.2585458984375,1.1114113330841064,-9.367457389831543,-2.6928837299346924
1682880514317419000,11.2754189453125,1.4597773551940918,-9.472585678100586,-2.091717004776001
1682880514334302000,11.292302001953125,1.820009708404541,-9.520245552062988,-1.5128165483474731
1682880514351166200,11.309166259765625,2.1171908378601074,-9.523719787597656,-1.025862455368042
1682880514368039700,11.326039794921876,2.2455039024353027,-9.524215698242188,-0.6950863003730774
1682880514384911600,11.34291162109375,2.19893741607666,-9.548571586608887,-0.474939227104187
1682880514401787400,11.359787353515625,2.0397722721099854,-9.591315269470215,-0.28655654191970825
1682880514418659800,11.376659912109375,1.7960764169692993,-9.64358901977539,-0.10692189633846283
1682880514435533000,11.393532958984375,1.4947062730789185,-9.695413589477539,0.03053152933716774
1682880514452404200,11.410404296875,1.1476900577545166,-9.7420654296875,0.10531917214393616
1682880514469282800,11.42728271484375,0.7714851498603821,-9.778860092163086,0.12178640067577362
1682880514486153700,11.44415380859375,0.4168807566165924,-9.80053997039795,0.10833721607923508
1682880514503027200,11.461027099609375,0.1688208132982254,-9.808061599731445,0.0976780354976654
1682880514519901000,11.47790087890625,0.08876366168260574,-9.809033393859863,0.10541857779026031
1682880514536774400,11.4947744140625,0.14778487384319305,-9.808210372924805,0.11525066941976547
1682880514553647900,11.51164794921875,0.25894278287887573,-9.806138038635254,0.09335138648748398
1682880514570521600,11.528521484375,0.3403067886829376,-9.804085731506348,0.015179372392594814
1682880514587394300,11.545394287109374,0.3175196051597595,-9.80423355102539,-0.11090297251939774
1682880514604268000,11.56226806640625,0.18245360255241394,-9.805153846740723,-0.2485511153936386
1682880514621141200,11.579141357421875,-0.03073764406144619,-9.802451133728027,-0.3835560083389282
1682880514638015500,11.596015380859376,-0.2655378580093384,-9.792548179626465,-0.5211784243583679
1682880514654888400,11.612888427734376,-0.45950931310653687,-9.777446746826172,-0.6530808210372925
1682880514671760000,11.629759765625,-0.5837147235870361,-9.762788772583008,-0.763758659362793
1682880514688638000,11.646637939453125,-0.6387083530426025,-9.753832817077637,-0.8312287926673889
1682880514705499100,11.6634990234375,-0.636985182762146,-9.751864433288574,-0.8552959561347961
1682880514722371600,11.68037158203125,-0.5828914046287537,-9.755773544311523,-0.8492563366889954
1682880514739255800,11.697255859375,-0.49397748708724976,-9.764293670654297,-0.8066450953483582
1682880514756129500,11.714129638671874,-0.385121613740921,-9.774519920349121,-0.739296555519104
1682880514772992800,11.73099267578125,-0.2636486291885376,-9.783700942993164,-0.6676763296127319
1682880514789863700,11.74786376953125,-0.13061627745628357,-9.793149948120117,-0.5597224235534668
1682880514806745600,11.76474560546875,-0.0639878362417221,-9.800873756408691,-0.41819581389427185
1682880514823611400,11.781611328125,-0.08909870684146881,-9.803048133850098,-0.35837265849113464
1682880514840499200,11.798499267578125,-0.046347957104444504,-9.799193382263184,-0.4580249786376953
1682880514857359400,11.815359375,0.12066490203142166,-9.790971755981445,-0.598694384098053
1682880514874250200,11.832250244140624,0.25499239563941956,-9.78087329864502,-0.7110705971717834
1682880514891117300,11.849117431640625,0.2999615967273712,-9.772553443908691,-0.8020965456962585
1682880514907991000,11.865990966796875,0.3348905146121979,-9.768692016601562,-0.8346491456031799
1682880514924853200,11.882853271484375,0.3820120692253113,-9.769183158874512,-0.8082308173179626
1682880514941737500,11.899737548828124,0.443029522895813,-9.771796226501465,-0.7428610324859619
1682880514958611000,11.91661083984375,0.5279223322868347,-9.773256301879883,-0.6639963984489441
1682880514975475500,11.933475341796875,0.6176303029060364,-9.770512580871582,-0.6258675456047058
1682880514992358100,11.950358154296875,0.6652628779411316,-9.76322078704834,-0.687777578830719
1682880515009231400,11.9672314453125,0.6521259546279907,-9.751349449157715,-0.8497203588485718
1682880515026104800,11.984104736328124,0.5832223892211914,-9.734354972839355,-1.0669137239456177
1682880515042978800,12.000978759765625,0.48526278138160706,-9.712445259094238,-1.2919172048568726
1682880515059851800,12.017851806640625,0.39768436551094055,-9.684568405151367,-1.512317180633545
1682880515076724700,12.034724853515625,0.35934942960739136,-9.647915840148926,-1.7391740083694458
1682880515093600300,12.051600341796876,0.3940175771713257,-9.598187446594238,-1.9888827800750732
1682880515110472700,12.06847265625,0.4848739504814148,-9.533799171447754,-2.2600176334381104
1682880515127345400,12.085345458984374,0.588711142539978,-9.459052085876465,-2.5329575538635254
1682880515144219400,12.102219482421875,0.6625187993049622,-9.380948066711426,-2.7919483184814453
1682880515161092900,12.1190927734375,0.6729713082313538,-9.305987358093262,-3.03015398979187
1682880515177966300,12.13596630859375,0.5964797735214233,-9.243602752685547,-3.230504035949707
1682880515194839300,12.15283935546875,0.4204522371292114,-9.210107803344727,-3.3516039848327637
1682880515211700200,12.1697001953125,0.15749593079090118,-9.200693130493164,-3.3997902870178223
1682880515228589000,12.186589111328125,-0.15792043507099152,-9.198722839355469,-3.4050967693328857
1682880515245472500,12.203472412109376,-0.48579779267311096,-9.194570541381836,-3.385265350341797
1682880515262333400,12.22033349609375,-0.7912482023239136,-9.183372497558594,-3.3579354286193848
1682880515279196400,12.237196533203125,-1.0471352338790894,-9.167604446411133,-3.3308606147766113
1682880515296080600,12.25408056640625,-1.2336684465408325,-9.15390682220459,-3.3045642375946045
1682880515312945000,12.27094482421875,-1.3426581621170044,-9.147250175476074,-3.280427932739258
1682880515329827000,12.2878271484375,-1.3762668371200562,-9.149839401245117,-3.2592103481292725
1682880515346701000,12.304701171875,-1.3475412130355835,-9.158347129821777,-3.247298240661621
1682880515363574500,12.321574462890625,-1.2759344577789307,-9.169371604919434,-3.245107650756836
1682880515380437500,12.3384375,-1.18369460105896,-9.180828094482422,-3.247670888900757
1682880515397319200,12.355319091796876,-1.0903267860412598,-9.192161560058594,-3.248300075531006
1682880515414196700,12.37219677734375,-1.0069233179092407,-9.200961112976074,-3.250309944152832
1682880515431068000,12.38906787109375,-0.9388827681541443,-9.202871322631836,-3.2652368545532227
1682880515447939600,12.405939697265625,-0.8881272077560425,-9.196242332458496,-3.297947645187378
1682880515464817400,12.4228173828125,-0.8474907875061035,-9.189023971557617,-3.328624963760376
1682880515481692000,12.43969189453125,-0.8161392211914062,-9.190832138061523,-3.3314661979675293
1682880515498559000,12.45655908203125,-0.8155831098556519,-9.198267936706543,-3.311016082763672
1682880515515436000,12.47343603515625,-0.9346476197242737,-9.195771217346191,-3.286388635635376
1682880515532308700,12.490308837890625,-1.3557629585266113,-9.148200988769531,-3.2723793983459473
1682880515549182200,12.50718212890625,-1.6728352308273315,-9.076659202575684,-3.3244543075561523
1682880515566056000,12.524055908203126,-1.208694338798523,-9.130765914916992,-3.3770253658294678
1682880515582930000,12.540929931640624,-0.46683821082115173,-9.303006172180176,-3.0777039527893066
1682880515599803000,12.557802978515625,0.04738876223564148,-9.472041130065918,-2.5523149967193604
1682880515616665000,12.5746650390625,0.38574960827827454,-9.59016227722168,-2.028815746307373
1682880515633550800,12.59155078125,0.6872560381889343,-9.659272193908691,-1.5691556930541992
1682880515650423300,12.60842333984375,0.9691959023475647,-9.688685417175293,-1.1942107677459717
1682880515667296300,12.625296142578126,1.2076150178909302,-9.69356918334961,-0.9013842940330505
1682880515684170500,12.64217041015625,1.361196756362915,-9.691644668579102,-0.6747561693191528
1682880515701043700,12.659043701171875,1.380162239074707,-9.698829650878906,-0.5137743949890137
1682880515717917200,12.675917236328125,1.2368595600128174,-9.723267555236816,-0.4054345488548279
1682880515734790700,12.692790771484376,0.9817478656768799,-9.755847930908203,-0.3094004690647125
1682880515751661600,12.70966162109375,0.677285373210907,-9.784092903137207,-0.22125805914402008
1682880515768537300,12.726537353515624,0.4320244789123535,-9.799595832824707,-0.1318950653076172
1682880515785414000,12.743413818359375,0.34377068281173706,-9.80394458770752,-0.024549536406993866
1682880515802284300,12.7602841796875,0.3798635005950928,-9.802153587341309,0.09784409403800964
1682880515819158000,12.777157958984375,0.44734007120132446,-9.797983169555664,0.18859873712062836
1682880515836020700,12.794020751953125,0.48646262288093567,-9.795656204223633,0.21115641295909882
1682880515852902700,12.810902587890626,0.4836021661758423,-9.796618461608887,0.16884508728981018
1682880515869780700,12.82778076171875,0.4478081464767456,-9.799372673034668,0.08886539936065674
1682880515886652000,12.84465185546875,0.3848423957824707,-9.80243968963623,-0.01393362320959568
1682880515903522600,12.8615224609375,0.28824931383132935,-9.8048734664917,-0.13234910368919373
1682880515920402000,12.87840185546875,0.15430568158626556,-9.804661750793457,-0.2844167649745941
1682880515937272000,12.89527197265625,-0.02528160810470581,-9.798407554626465,-0.4761364459991455
1682880515954135000,12.912135009765626,-0.2439645528793335,-9.783294677734375,-0.6809913516044617
1682880515971013600,12.929013671875,-0.433697372674942,-9.76055908203125,-0.8829144239425659
1682880515987894000,12.94589404296875,-0.4837378263473511,-9.738401412963867,-1.079661250114441
1682880516004773400,12.9627734375,-0.39867135882377625,-9.720080375671387,-1.2638061046600342
1682880516021636600,12.97963671875,-0.30293023586273193,-9.703033447265625,-1.4126166105270386
1682880516038515700,12.996515625,-0.23977035284042358,-9.69642448425293,-1.4690042734146118
1682880516055386400,13.013386474609375,-0.16678890585899353,-9.703018188476562,-1.435176968574524
1682880516072259600,13.030259521484375,-0.06488129496574402,-9.718487739562988,-1.335251808166504
1682880516089133300,13.04713330078125,0.07226457446813583,-9.741936683654785,-1.1513471603393555
1682880516105996300,13.063996337890625,0.23474934697151184,-9.767284393310547,-0.8838303685188293
1682880516122880500,13.080880615234374,0.36461424827575684,-9.782241821289062,-0.6410238742828369
1682880516139753200,13.097753173828124,0.41892319917678833,-9.785666465759277,-0.5489433407783508
1682880516156616700,13.11461669921875,0.49229463934898376,-9.775286674499512,-0.6614829897880554
1682880516173500700,13.131500732421875,0.5958155393600464,-9.755935668945312,-0.8383407592773438
1682880516190374400,13.14837451171875,0.6480597853660583,-9.738654136657715,-0.9872816205024719
1682880516207247000,13.1652470703125,0.6052213311195374,-9.72695541381836,-1.1207811832427979
1682880516224121000,13.18212109375,0.5445377826690674,-9.720733642578125,-1.2028881311416626
1682880516240994000,13.198994140625,0.5089218020439148,-9.718940734863281,-1.2325884103775024
1682880516257867800,13.21586767578125,0.5058134198188782,-9.719645500183105,-1.2283270359039307
1682880516274741200,13.2327412109375,0.5411206483840942,-9.720992088317871,-1.2023380994796753
1682880516291612200,13.249612060546875,0.582045316696167,-9.720731735229492,-1.1852034330368042
1682880516308480000,13.26647998046875,0.5660420656204224,-9.717876434326172,-1.215977668762207
1682880516325362200,13.283362060546875,0.4864450991153717,-9.715497970581055,-1.268302083015442
1682880516342235000,13.30023486328125,0.378113716840744,-9.714940071105957,-1.3088560104370117
1682880516359108400,13.3171083984375,0.277322918176651,-9.713398933410645,-1.345018982887268
1682880516375972400,13.333972412109375,0.20121732354164124,-9.70737361907959,-1.4008978605270386
1682880516392856000,13.35085595703125,0.15589438378810883,-9.696069717407227,-1.4825849533081055
1682880516409718300,13.36771826171875,0.1352338194847107,-9.681309700012207,-1.578004240989685
1682880516426602500,13.3846025390625,0.12178055197000504,-9.665664672851562,-1.672195315361023
1682880516443476000,13.40147607421875,0.0978093072772026,-9.650671005249023,-1.7581490278244019
1682880516460348200,13.41834814453125,0.057126130908727646,-9.635761260986328,-1.8398226499557495
1682880516477223700,13.4352236328125,0.003066279925405979,-9.618629455566406,-1.9282305240631104
1682880516494096100,13.45209619140625,-0.059563249349594116,-9.59729290008545,-2.0308949947357178
1682880516510969300,13.46896923828125,-0.12765875458717346,-9.571081161499023,-2.1480748653411865
1682880516527843300,13.48584326171875,-0.2018985152244568,-9.540301322937012,-2.275526523590088
1682880516544716300,13.50271630859375,-0.28172528743743896,-9.505346298217773,-2.4093854427337646
1682880516561587200,13.519587158203125,-0.3698270618915558,-9.467391014099121,-2.543196201324463
1682880516578466300,13.53646630859375,-0.4731578826904297,-9.427498817443848,-2.671051025390625
1682880516595337000,13.5533369140625,-0.5965312123298645,-9.385306358337402,-2.792187452316284
1682880516612210000,13.5702099609375,-0.7363802194595337,-9.338142395019531,-2.91426944732666
1682880516629084200,13.587084228515625,-0.8823636174201965,-9.283909797668457,-3.0441038608551025
1682880516645957000,13.60395703125,-1.0249245166778564,-9.226533889770508,-3.1712353229522705
1682880516662830800,13.620830810546876,-1.1578106880187988,-9.171581268310547,-3.282942771911621
1682880516679699700,13.63769970703125,-1.2756894826889038,-9.12063217163086,-3.37976336479187
1682880516696582000,13.654581787109375,-1.3685630559921265,-9.073854446411133,-3.4681835174560547
1682880516713450800,13.67145068359375,-1.4261499643325806,-9.033418655395508,-3.5495870113372803
1682880516730324500,13.688324462890625,-1.4444407224655151,-9.003630638122559,-3.6172282695770264
1682880516747197400,13.705197509765625,-1.4239122867584229,-8.98675537109375,-3.6669905185699463
1682880516764071200,13.7220712890625,-1.369860053062439,-8.98438549041748,-3.6932904720306396
1682880516780945000,13.73894482421875,-1.2958471775054932,-8.997598648071289,-3.6878347396850586
1682880516797819000,13.75581884765625,-1.2155245542526245,-9.019383430480957,-3.661877155303955
1682880516814691600,13.772691650390625,-1.153449296951294,-9.040712356567383,-3.6292128562927246
1682880516831562200,13.789562255859375,-1.1843863725662231,-9.049332618713379,-3.597630262374878
1682880516848441000,13.806441162109374,-1.2461867332458496,-9.038534164428711,-3.603891372680664
1682880516865312500,13.8233125,-1.1621832847595215,-9.032618522644043,-3.646543502807617
1682880516882185200,13.840185302734374,-0.7473525404930115,-9.095273971557617,-3.599107503890991
1682880516899059000,13.857058837890625,-0.32472923398017883,-9.254961013793945,-3.236721992492676
1682880516915921700,13.873921630859375,0.007238268386572599,-9.440763473510742,-2.666090488433838
1682880516932795600,13.890795654296875,0.3675045371055603,-9.575279235839844,-2.1012115478515625
1682880516949678800,13.907678955078126,0.7412384152412415,-9.643364906311035,-1.6407980918884277
1682880516966552600,13.924552490234374,1.054532766342163,-9.669200897216797,-1.2769694328308105
1682880516983426300,13.94142626953125,1.303560495376587,-9.672256469726562,-0.992119312286377
1682880517000289000,13.9582890625,1.5046461820602417,-9.663017272949219,-0.77347731590271
1682880517017173000,13.975173095703125,1.6449546813964844,-9.651691436767578,-0.6124598979949951
1682880517034046700,13.992046630859376,1.6854393482208252,-9.65021800994873,-0.5183627009391785
1682880517050920000,14.008919921875,1.6265535354614258,-9.661664962768555,-0.49261361360549927
1682880517067793400,14.02579345703125,1.4880218505859375,-9.684149742126465,-0.4890359938144684
1682880517084666400,14.042666259765625,1.3049921989440918,-9.710824966430664,-0.4826730489730835
1682880517101537500,14.05953759765625,1.1175411939620972,-9.734827041625977,-0.46942266821861267
1682880517118416400,14.07641650390625,0.9543413519859314,-9.753459930419922,-0.44198840856552124
1682880517135287600,14.09328759765625,0.8180980086326599,-9.767672538757324,-0.3992575407028198
1682880517152160500,14.110160400390624,0.6918492913246155,-9.778316497802734,-0.37681272625923157
1682880517169034000,14.127033935546875,0.5564219355583191,-9.785852432250977,-0.40449053049087524
1682880517185896700,14.143896728515625,0.4144360423088074,-9.789153099060059,-0.486664354801178
1682880517202781000,14.160781005859375,0.27396368980407715,-9.786720275878906,-0.617392897605896
1682880517219654100,14.177654052734376,0.1285814493894577,-9.77831745147705,-0.7772417664527893
1682880517236525600,14.194525634765625,-0.03296835720539093,-9.763382911682129,-0.9546632170677185
1682880517253401300,14.2114013671875,-0.19197432696819305,-9.740102767944336,-1.1531133651733398
1682880517270275000,14.228275146484375,-0.2850114405155182,-9.70903491973877,-1.3745944499969482
1682880517287147800,14.245147705078125,-0.27678292989730835,-9.674304008483887,-1.602290391921997
1682880517304021500,14.262021484375,-0.2435973584651947,-9.640867233276367,-1.7973428964614868
1682880517320894700,14.278894775390626,-0.2587355077266693,-9.619525909423828,-1.9062774181365967
1682880517337768000,14.295767822265624,-0.280198872089386,-9.615564346313477,-1.9231566190719604
1682880517354641400,14.312641357421874,-0.2268427461385727,-9.625162124633789,-1.8817390203475952
1682880517371514400,14.329514404296875,-0.07834596931934357,-9.654467582702637,-1.7381644248962402
1682880517388389600,14.3463896484375,0.10659649968147278,-9.691900253295898,-1.513871431350708
1682880517405262300,14.363262451171876,0.2509241998195648,-9.720186233520508,-1.3004372119903564
1682880517422135300,14.38013525390625,0.2849786877632141,-9.736808776855469,-1.1616640090942383
1682880517439008800,14.3970087890625,0.2621409296989441,-9.742606163024902,-1.11760675907135
1682880517455872000,14.4138720703125,0.34846219420433044,-9.735114097595215,-1.1585618257522583
1682880517472756500,14.430756591796875,0.5670673847198486,-9.715048789978027,-1.2378947734832764
1682880517489629000,14.44762890625,0.8456153273582458,-9.684632301330566,-1.3148912191390991
1682880517506492400,14.464492431640625,1.1201868057250977,-9.649395942687988,-1.3676360845565796
1682880517523376000,14.481376220703124,1.3401871919631958,-9.616729736328125,-1.3994770050048828
1682880517540249900,14.498249755859375,1.4606213569641113,-9.594730377197266,-1.4296340942382812
1682880517557112300,14.5151123046875,1.471070408821106,-9.588631629943848,-1.459533452987671
1682880517573996800,14.531996826171875,1.4080157279968262,-9.593639373779297,-1.4885233640670776
1682880517590869800,14.548869873046876,1.326668381690979,-9.599662780761719,-1.5239920616149902
1682880517607743700,14.56574365234375,1.2553027868270874,-9.604300498962402,-1.554914116859436
1682880517624617000,14.582616943359374,1.1925805807113647,-9.609880447387695,-1.5697356462478638
1682880517641490400,14.599490478515625,1.1302838325500488,-9.617300987243652,-1.5703794956207275
1682880517658363400,14.61636328125,1.075190782546997,-9.624202728271484,-1.5667781829833984
1682880517675235300,14.6332353515625,1.0303083658218384,-9.629557609558105,-1.564031720161438
1682880517692104700,14.650104736328124,0.9841402173042297,-9.636329650878906,-1.5520071983337402
1682880517708984000,14.666984130859374,0.923479437828064,-9.647429466247559,-1.5200024843215942
1682880517725847300,14.683847412109374,0.8358179926872253,-9.66227912902832,-1.4757715463638306
1682880517742731300,14.700731201171875,0.7170996069908142,-9.677329063415527,-1.43915593624115
1682880517759604200,14.717604248046875,0.5765585899353027,-9.688929557800293,-1.4241999387741089
1682880517776478000,14.73447802734375,0.4260313808917999,-9.69411563873291,-1.4417802095413208
1682880517793351200,14.75135107421875,0.27496767044067383,-9.690866470336914,-1.4992069005966187
1682880517810225200,14.76822509765625,0.12978041172027588,-9.67949390411377,-1.5895551443099976
1682880517827097900,14.785097900390625,-0.005860371980816126,-9.661755561828613,-1.6989907026290894
1682880517843969300,14.80196923828125,-0.1281367689371109,-9.638355255126953,-1.8225772380828857
1682880517860846300,14.818846435546876,-0.23232801258563995,-9.609041213989258,-1.961750864982605
1682880517877720300,14.83572021484375,-0.31564295291900635,-9.573304176330566,-2.1185741424560547
1682880517894591500,14.852591552734374,-0.37964919209480286,-9.531998634338379,-2.2875685691833496
1682880517911452200,14.8694521484375,-0.4316449761390686,-9.48751163482666,-2.457017660140991
1682880517928341200,14.88634130859375,-0.47952988743782043,-9.44180965423584,-2.6188580989837646
1682880517945212700,14.903212646484375,-0.5275402069091797,-9.39578914642334,-2.7707343101501465
1682880517962088400,14.92008837890625,-0.5759484171867371,-9.3487548828125,-2.9163668155670166
1682880517978956300,14.936956298828125,-0.619597315788269,-9.29930591583252,-3.0618855953216553
1682880517995824000,14.95382421875,-0.6485044956207275,-9.246726989746094,-3.211481809616089
1682880518012701400,14.970701416015626,-0.6511807441711426,-9.190733909606934,-3.3678646087646484
1682880518029578000,14.987577880859375,-0.6196849942207336,-9.130815505981445,-3.5327508449554443
1682880518046441000,15.00444091796875,-0.5494032502174377,-9.065946578979492,-3.7071406841278076
1682880518063326200,15.021326171875,-0.4437958002090454,-9.003739356994629,-3.8693466186523438
1682880518080200000,15.038199951171874,-0.29919707775115967,-8.96274471282959,-3.9769091606140137
1682880518097073000,15.055072998046874,-0.1165151298046112,-8.941750526428223,-4.033317565917969
1682880518113946000,15.071946044921875,0.09784994274377823,-8.937397003173828,-4.043449401855469
1682880518130819600,15.088819580078125,0.32237163186073303,-8.95093059539795,-4.001628875732422
1682880518147693300,15.105693359375,0.53501296043396,-8.986531257629395,-3.8977127075195312
1682880518164566800,15.12256689453125,0.7012966275215149,-9.053788185119629,-3.7112302780151367
1682880518181442000,15.139442138671875,0.7746754288673401,-9.176375389099121,-3.3808467388153076
1682880518198312000,15.15631201171875,0.773037314414978,-9.317023277282715,-2.9718017578125
1682880518215187500,15.1731875,0.7092577815055847,-9.453278541564941,-2.523610830307007
1682880518232060200,15.19006005859375,0.47769859433174133,-9.590975761413574,-2.0052719116210938
1682880518248933600,15.20693359375,-0.02787652797996998,-9.69251537322998,-1.5134387016296387
1682880518265796900,15.223796875,-0.4160125255584717,-9.72198486328125,-1.2433964014053345
1682880518282681300,15.240681396484375,-0.1647685170173645,-9.751309394836426,-1.0587435960769653
1682880518299554000,15.257553955078125,0.3897320330142975,-9.762248992919922,-0.8847033381462097
1682880518316414700,15.274414794921874,0.9291549324989319,-9.732975006103516,-0.8012377619743347
1682880518333291500,15.29129150390625,1.262926697731018,-9.69409465789795,-0.8158803582191467
1682880518350164700,15.308164794921876,1.4403612613677979,-9.663718223571777,-0.8797883987426758
1682880518367038000,15.325037841796876,1.5204360485076904,-9.64415454864502,-0.9563769102096558
1682880518383911700,15.34191162109375,1.5309123992919922,-9.633404731750488,-1.0439913272857666
1682880518400785200,15.35878515625,1.4795632362365723,-9.632083892822266,-1.1269346475601196
1682880518417656000,15.375656005859375,1.4004660844802856,-9.638452529907227,-1.1726127862930298
1682880518434533600,15.39253369140625,1.3157958984375,-9.65102767944336,-1.1672388315200806
1682880518451411000,15.409410888671875,1.2068042755126953,-9.670818328857422,-1.1202818155288696
1682880518468277000,15.426277099609376,1.0427159070968628,-9.694696426391602,-1.0778347253799438
1682880518485152300,15.44315234375,0.8107143044471741,-9.717799186706543,-1.0692287683486938
1682880518502024700,15.460024658203125,0.5462129712104797,-9.733264923095703,-1.0960614681243896
1682880518518900500,15.476900390625,0.3368564248085022,-9.737406730651855,-1.1426085233688354
1682880518535772400,15.4937724609375,0.25796252489089966,-9.733438491821289,-1.1957216262817383
1682880518552645000,15.51064501953125,0.3019995391368866,-9.725663185119629,-1.2475616931915283
1682880518569518300,15.527518310546874,0.3992703855037689,-9.71610164642334,-1.293853521347046
1682880518586393900,15.544393798828125,0.47423800826072693,-9.706056594848633,-1.3430039882659912
1682880518603266300,15.561266357421875,0.47481516003608704,-9.69617748260498,-1.412376046180725
1682880518620139500,15.578139404296875,0.39172425866127014,-9.68629264831543,-1.5027986764907837
1682880518637012000,15.595011962890625,0.26503702998161316,-9.671744346618652,-1.6196364164352417
1682880518653891000,15.61189111328125,0.16294553875923157,-9.644840240478516,-1.7851108312606812
1682880518670762800,15.6287626953125,0.12541964650154114,-9.602312088012695,-2.0039947032928467
1682880518687633000,15.6456328125,0.13468031585216522,-9.548402786254883,-2.2463197708129883
1682880518704505000,15.662505126953125,0.06790126115083694,-9.491799354553223,-2.4773519039154053
1682880518721378600,15.679378662109375,-0.12145407497882843,-9.445988655090332,-2.644744634628296
1682880518738267400,15.696267333984375,-0.3734387755393982,-9.424620628356934,-2.6968822479248047
1682880518755137000,15.713136962890625,-0.5694706439971924,-9.41791820526123,-2.686011791229248
1682880518772009700,15.730009765625,-0.670247495174408,-9.419620513916016,-2.6566226482391357
1682880518788883500,15.746883544921875,-0.6975729465484619,-9.434370994567871,-2.5965685844421387
1682880518805746200,15.76374609375,-0.6579227447509766,-9.464668273925781,-2.4946539402008057
1682880518822630400,15.78063037109375,-0.5569178462028503,-9.509918212890625,-2.342522144317627
1682880518839503400,15.79750341796875,-0.4160686135292053,-9.562549591064453,-2.1495676040649414
1682880518856377300,15.81437744140625,-0.2698341906070709,-9.611422538757324,-1.9452131986618042
1682880518873250600,15.83125048828125,-0.1839507818222046,-9.648977279663086,-1.760542869567871
1682880518890124300,15.848124267578125,-0.21481195092201233,-9.675206184387207,-1.6063554286956787
1682880518906997200,15.864997314453126,-0.34012115001678467,-9.690862655639648,-1.4858133792877197
1682880518923870700,15.88187060546875,-0.47645848989486694,-9.697990417480469,-1.399322271347046
1682880518940744200,15.898744140625,-0.5743584036827087,-9.701589584350586,-1.3361958265304565
1682880518957617700,15.91561767578125,-0.6314035058021545,-9.707002639770508,-1.2694727182388306
1682880518974491000,15.932490966796875,-0.6513570547103882,-9.716279029846191,-1.1856564283370972
1682880518991364900,15.94936474609375,-0.6399657726287842,-9.7291259765625,-1.0819720029830933
1682880519008238000,15.966238037109376,-0.6007553339004517,-9.743843078613281,-0.965783417224884
1682880519025111600,15.983111572265624,-0.5308420658111572,-9.757522583007812,-0.8631807565689087
1682880519041984300,15.999984375,-0.42616966366767883,-9.767337799072266,-0.8084504008293152
1682880519058858500,16.0168583984375,-0.29803797602653503,-9.771912574768066,-0.8105603456497192
1682880519075721000,16.033720947265625,-0.16932427883148193,-9.772076606750488,-0.8449705243110657
1682880519092603000,16.050602783203125,-0.06669745594263077,-9.769793510437012,-0.8847652077674866
1682880519109480700,16.067480712890625,-0.01039148960262537,-9.766693115234375,-0.9207204580307007
1682880519126352100,16.08435205078125,-0.001902172458358109,-9.763002395629883,-0.9591103196144104
1682880519143222800,16.101222900390624,-0.02251744642853737,-9.757142066955566,-1.0167522430419922
1682880519160102000,16.118101806640624,-0.044518474489450455,-9.747492790222168,-1.1047675609588623
1682880519176971800,16.1349716796875,-0.04842492565512657,-9.733795166015625,-1.21942937374115
1682880519193842700,16.1518427734375,-0.032078083604574203,-9.716177940368652,-1.3531371355056763
1682880519210721800,16.1687216796875,-0.006510034203529358,-9.69462776184082,-1.5000852346420288
1682880519227592700,16.1855927734375,0.012790346518158913,-9.669116973876953,-1.656540036201477
1682880519244463000,16.202463134765626,0.01003279909491539,-9.639029502868652,-1.823492407798767
1682880519261342200,16.21934228515625,-0.020395126193761826,-9.602972984313965,-2.0046472549438477
1682880519278212400,16.23621240234375,-0.0721161961555481,-9.558877944946289,-2.2042555809020996
1682880519295086000,16.253086181640626,-0.13370400667190552,-9.505119323730469,-2.4230034351348877
1682880519311959000,16.269958984375,-0.19731353223323822,-9.441819190979004,-2.655041456222534
1682880519328833000,16.2868330078125,-0.26419514417648315,-9.373976707458496,-2.8800809383392334
1682880519345710800,16.3037109375,-0.34985384345054626,-9.310412406921387,-3.070821762084961
1682880519362580200,16.320580322265624,-0.4594806432723999,-9.256152153015137,-3.2169318199157715
1682880519379453200,16.337453125,-0.5862739086151123,-9.21388053894043,-3.316138505935669
1682880519396326700,16.35432666015625,-0.7309993505477905,-9.186490058898926,-3.3630566596984863
1682880519413200000,16.371199951171874,-0.8945798873901367,-9.177297592163086,-3.348590135574341
1682880519430073300,16.3880732421875,-1.0753538608551025,-9.18006420135498,-3.2872657775878906
1682880519446946600,16.404946533203123,-1.271601915359497,-9.181382179260254,-3.212686061859131
1682880519463820300,16.4218203125,-1.443435549736023,-9.184627532958984,-3.1297292709350586
1682880519480693800,16.43869384765625,-1.520410180091858,-9.20097541809082,-3.0440986156463623
1682880519497567500,16.4555673828125,-1.4801656007766724,-9.237558364868164,-2.9517385959625244
1682880519514440400,16.4724404296875,-1.3598812818527222,-9.295581817626953,-2.824716806411743
1682880519531313700,16.489313720703127,-1.2041270732879639,-9.36258602142334,-2.6698639392852783
1682880519548187100,16.506187255859373,-0.9790982007980347,-9.427377700805664,-2.53023099899292
1682880519565061000,16.52306103515625,-0.7738386988639832,-9.49145793914795,-2.3557324409484863
1682880519581934000,16.53993408203125,-0.92615807056427,-9.548501014709473,-2.0504791736602783
1682880519598807600,16.5568076171875,-0.6882559061050415,-9.63469123840332,-1.7132210731506348
1682880519615667000,16.5736669921875,-0.09747601300477982,-9.706047058105469,-1.4210094213485718
1682880519632554800,16.5905546875,0.5245320796966553,-9.728473663330078,-1.147944450378418
1682880519649427200,16.60742724609375,0.929029643535614,-9.724116325378418,-0.9025470018386841
1682880519666301000,16.624301025390626,1.2038317918777466,-9.707255363464355,-0.7457311153411865
1682880519683174700,16.641174560546876,1.3959718942642212,-9.687426567077637,-0.6642001867294312
1682880519700054500,16.658054443359376,1.5094307661056519,-9.673410415649414,-0.6187681555747986
1682880519716921300,16.67492138671875,1.545046091079712,-9.668262481689453,-0.6112697124481201
1682880519733795000,16.691795166015623,1.5068076848983765,-9.672696113586426,-0.6360636353492737
1682880519750667800,16.708667724609374,1.4223264455795288,-9.683794975280762,-0.6612391471862793
1682880519767545000,16.725545166015625,1.298466682434082,-9.698858261108398,-0.6944352388381958
1682880519784414500,16.74241455078125,1.1182297468185425,-9.717634201049805,-0.743826687335968
1682880519801284000,16.7592841796875,0.8832055926322937,-9.73750114440918,-0.7982133626937866
1682880519818164500,16.77616455078125,0.6108253002166748,-9.754011154174805,-0.8498732447624207
1682880519835035600,16.79303564453125,0.32107648253440857,-9.763554573059082,-0.8977993726730347
1682880519851908400,16.809908447265624,0.030797870829701424,-9.7634916305542,-0.9536274075508118
1682880519868781800,16.82678173828125,-0.24004165828227997,-9.7530517578125,-1.0278443098068237
1682880519885666000,16.843666015625,-0.47946175932884216,-9.73511028289795,-1.110803484916687
1682880519902529000,16.860529052734375,-0.6707949638366699,-9.71379280090332,-1.1951557397842407
1682880519919399400,16.8773994140625,-0.8161912560462952,-9.69156265258789,-1.2820169925689697
1682880519936278500,16.894278564453124,-0.8809327483177185,-9.675686836242676,-1.3568947315216064
1682880519953149000,16.91114892578125,-0.8372827172279358,-9.678954124450684,-1.3612323999404907
1682880519970022700,16.928022705078124,-0.7335782647132874,-9.699978828430176,-1.2682266235351562
1682880519986895600,16.9448955078125,-0.6039998531341553,-9.72330379486084,-1.1526856422424316
1682880520003769000,16.96176904296875,-0.46702882647514343,-9.745500564575195,-1.0213817358016968
1682880520020642300,16.978642333984375,-0.31754299998283386,-9.766158103942871,-0.8703142404556274
1682880520037516500,16.9955166015625,-0.16179947555065155,-9.783855438232422,-0.6972088813781738
1682880520054389200,17.01238916015625,-0.08021210879087448,-9.791561126708984,-0.5958441495895386
1682880520071260400,17.029260498046874,-0.09124404937028885,-9.786759376525879,-0.6686779856681824
1682880520088139000,17.046138916015625,-0.07375561445951462,-9.775054931640625,-0.8239911198616028
1682880520105010000,17.063010009765627,0.06299439817667007,-9.761263847351074,-0.9746201038360596
1682880520121874200,17.079874267578123,0.25300201773643494,-9.745939254760742,-1.0903156995773315
1682880520138746000,17.09674609375,0.4051389694213867,-9.727599143981934,-1.202416181564331
1682880520155622700,17.11362255859375,0.5053029656410217,-9.710893630981445,-1.29587984085083
1682880520172503600,17.130503662109376,0.5902214646339417,-9.697458267211914,-1.3590657711029053
1682880520189376500,17.14737646484375,0.6780449151992798,-9.686206817626953,-1.3977737426757812
1682880520206250000,17.16425,0.7759764194488525,-9.677877426147461,-1.4045222997665405
1682880520223123500,17.18112353515625,0.8723443746566772,-9.674038887023926,-1.3740901947021484
1682880520239997000,17.197996826171874,0.8972476720809937,-9.677375793457031,-1.3339581489562988
1682880520256870400,17.214870361328124,0.7666226029396057,-9.69019603729248,-1.3223154544830322
1682880520273743600,17.23174365234375,0.5454376339912415,-9.704753875732422,-1.3252840042114258
1682880520290617000,17.2486171875,0.3075799345970154,-9.712950706481934,-1.3416802883148193
1682880520307490800,17.26549072265625,0.09691935777664185,-9.711200714111328,-1.385391116142273
1682880520324363800,17.28236376953125,-0.039486248046159744,-9.69995403289795,-1.4647337198257446
1682880520341239000,17.299239013671876,-0.07430174201726913,-9.681456565856934,-1.5811442136764526
1682880520358108700,17.316108642578126,-0.02020213007926941,-9.655807495117188,-1.7323672771453857
1682880520374966500,17.332966552734376,0.07015372812747955,-9.620475769042969,-1.9177184104919434
1682880520391860000,17.34985986328125,0.13978354632854462,-9.575745582580566,-2.126420736312866
1682880520408729000,17.36672900390625,0.15371745824813843,-9.525218963623047,-2.3415145874023438
1682880520425601800,17.383601806640623,0.09974239021539688,-9.471348762512207,-2.5533761978149414
1682880520442481000,17.40048095703125,-0.01626753993332386,-9.413216590881348,-2.76174259185791
1682880520459351000,17.41735107421875,-0.18068598210811615,-9.347331047058105,-2.9716837406158447
1682880520476224800,17.434224853515627,-0.3799099922180176,-9.27216911315918,-3.1809821128845215
1682880520493098000,17.451097900390625,-0.6014657020568848,-9.190457344055176,-3.3778464794158936
1682880520509971700,17.4679716796875,-0.8337404727935791,-9.107706069946289,-3.548333168029785
1682880520526844400,17.484844482421874,-1.0655591487884521,-9.029502868652344,-3.6835849285125732
1682880520543718400,17.501718505859376,-1.282613754272461,-8.95319652557373,-3.798858165740967
1682880520560591600,17.518591552734375,-1.452467679977417,-8.874287605285645,-3.920905828475952
1682880520577465300,17.53546533203125,-1.5437977313995361,-8.803359985351562,-4.0439677238464355
1682880520594337800,17.552337890625,-1.5496952533721924,-8.755147933959961,-4.145113468170166
1682880520611201500,17.569201416015623,-1.4855962991714478,-8.739341735839844,-4.2015509605407715
1682880520628085200,17.586085205078124,-1.384023666381836,-8.755884170532227,-4.201798439025879
1682880520644959000,17.602958984375,-1.2679851055145264,-8.784622192382812,-4.178369045257568
1682880520661831200,17.6198310546875,-1.129058837890625,-8.81356143951416,-4.157217979431152
1682880520678705700,17.63670556640625,-0.9695853590965271,-8.850090980529785,-4.119700908660889
1682880520695578600,17.65357861328125,-0.8613170981407166,-8.901884078979492,-4.03122091293335
1682880520712452000,17.6704521484375,-0.9211569428443909,-8.96262264251709,-3.880587100982666
1682880520729307100,17.68730712890625,-1.0640149116516113,-9.001275062561035,-3.7524688243865967
1682880520746199000,17.704198974609376,-0.9034001231193542,-9.025979042053223,-3.735198497772217
1682880520763072300,17.721072265625,-0.3166343569755554,-9.104619979858398,-3.6389212608337402
1682880520779946000,17.737946044921873,0.2508385479450226,-9.249738693237305,-3.258145332336426
1682880520796819000,17.75481884765625,0.6264747977256775,-9.402994155883789,-2.7253124713897705
1682880520813692400,17.7716923828125,0.9718850255012512,-9.507341384887695,-2.214050531387329
1682880520830565600,17.788565673828124,1.3607038259506226,-9.551281929016113,-1.776964783668518
1682880520847439400,17.805439453125,1.7606323957443237,-9.548340797424316,-1.4019559621810913
1682880520864312600,17.8223125,2.0935378074645996,-9.523329734802246,-1.076755404472351
1682880520881186300,17.839186279296875,2.3201489448547363,-9.495685577392578,-0.8276327848434448
1682880520898059500,17.8560595703125,2.3924286365509033,-9.49169635772705,-0.6481416821479797
1682880520914933200,17.872933349609376,2.28222918510437,-9.52522087097168,-0.5456177592277527
1682880520931800800,17.88980078125,2.09014630317688,-9.572378158569336,-0.4868289530277252
1682880520948682000,17.906681884765625,1.8911843299865723,-9.615628242492676,-0.4463615417480469
1682880520965553000,17.923552978515627,1.6293892860412598,-9.664190292358398,-0.4296610355377197
1682880520982416000,17.940415771484375,1.3129947185516357,-9.711958885192871,-0.43591931462287903
1682880520999299300,17.95729931640625,0.9847536087036133,-9.750673294067383,-0.4367580711841583
1682880521016170800,17.974170654296874,0.6647921800613403,-9.779876708984375,-0.38495877385139465
1682880521033043500,17.99104345703125,0.36490076780319214,-9.799444198608398,-0.27176016569137573
1682880521049920000,18.007919921875,0.12211500853300095,-9.808237075805664,-0.14027968049049377
1682880521066791000,18.024791015625,-0.014865376986563206,-9.809741020202637,-0.06983242183923721
1682880521083654000,18.04165380859375,-0.048557620495557785,-9.80859661102295,-0.1587039679288864
1682880521100540200,18.0585400390625,-0.010430848225951195,-9.8009614944458,-0.42086711525917053
1682880521117414000,18.075413818359376,0.11142454296350479,-9.780505180358887,-0.7519344091415405
1682880521134286600,18.09228662109375,0.2722247242927551,-9.745298385620117,-1.091407060623169
1682880521151160300,18.109160400390625,0.37291204929351807,-9.703914642333984,-1.3896387815475464
1682880521168033500,18.126033447265623,0.3860606849193573,-9.672842979431152,-1.588456153869629
1682880521184899300,18.1428994140625,0.37325236201286316,-9.656728744506836,-1.6865376234054565
1682880521201768200,18.159768310546873,0.366178959608078,-9.65566635131836,-1.6941419839859009
1682880521218654000,18.176654052734374,0.38981926441192627,-9.679471969604492,-1.5466078519821167
1682880521235532800,18.19353271484375,0.4555209279060364,-9.724620819091797,-1.2084678411483765
1682880521252401700,18.210401611328123,0.484820157289505,-9.762201309204102,-0.836951494216919
1682880521269273000,18.227273193359373,0.5440138578414917,-9.774882316589355,-0.6259602308273315
1682880521286147300,18.244147216796875,0.714869499206543,-9.764141082763672,-0.6217800974845886
1682880521303020500,18.2610205078125,0.8834336400032043,-9.744037628173828,-0.7136933207511902
1682880521319894300,18.277894287109376,0.9814937710762024,-9.729702949523926,-0.7782554030418396
1682880521336767500,18.294767578125,1.0918828248977661,-9.716536521911621,-0.7955087423324585
1682880521353641200,18.31164111328125,1.245671033859253,-9.696832656860352,-0.8098385334014893
1682880521370513000,18.328512939453127,1.4388577938079834,-9.667728424072266,-0.8371593356132507
1682880521387389400,18.345389404296874,1.6782094240188599,-9.624884605407715,-0.8839312195777893
1682880521404260600,18.362260498046876,1.9681419134140015,-9.562966346740723,-0.9550982713699341
1682880521421134300,18.37913427734375,2.268789291381836,-9.48211669921875,-1.0854426622390747
1682880521438007800,18.3960078125,2.5169990062713623,-9.390110969543457,-1.3140130043029785
1682880521454881800,18.4128818359375,2.652712106704712,-9.30273151397705,-1.6304762363433838
1682880521471752000,18.429751953125,2.640108585357666,-9.234814643859863,-1.9960286617279053
1682880521488630500,18.446630615234376,2.472350597381592,-9.197046279907227,-2.3532817363739014
1682880521505491000,18.463490966796876,2.160449266433716,-9.1985445022583,-2.637298107147217
1682880521522375000,18.480375,1.7525025606155396,-9.232664108276367,-2.814742088317871
1682880521539247900,18.497247802734375,1.3260624408721924,-9.273621559143066,-2.911632537841797
1682880521556110800,18.51411083984375,0.9294694662094116,-9.306583404541016,-2.9596805572509766
1682880521572995000,18.5309951171875,0.5644538402557373,-9.32910442352295,-2.9808290004730225
1682880521589868500,18.54786865234375,0.22781191766262054,-9.344772338867188,-2.9764819145202637
1682880521606741200,18.5647412109375,-0.08622948080301285,-9.358332633972168,-2.9411346912384033
1682880521623615200,18.581615234375,-0.3820401430130005,-9.366454124450684,-2.891313076019287
1682880521640488200,18.59848828125,-0.6690419316291809,-9.358162879943848,-2.865884780883789
1682880521657359400,18.615359375,-0.9822700023651123,-9.331976890563965,-2.8610305786132812
1682880521674238000,18.632238037109374,-1.3689907789230347,-9.287593841552734,-2.8464980125427246
1682880521691108900,18.64910888671875,-1.7579636573791504,-9.2291259765625,-2.822922945022583
1682880521707979300,18.665979248046874,-1.9967365264892578,-9.177616119384766,-2.8320534229278564
1682880521724858400,18.6828583984375,-1.978863000869751,-9.157323837280273,-2.9092369079589844
1682880521741726000,18.699725830078126,-1.750108242034912,-9.16152572631836,-3.0396888256073
1682880521758604500,18.7166044921875,-1.3968043327331543,-9.164875030517578,-3.20782470703125
1682880521775471600,18.7334716796875,-0.9846115112304688,-9.148968696594238,-3.4004440307617188
1682880521792349400,18.750349365234374,-0.5879407525062561,-9.108535766601562,-3.595135450363159
1682880521809211100,18.767211181640626,-0.3189154863357544,-9.039800643920898,-3.796900510787964
1682880521826088200,18.784088134765625,-0.2652639150619507,-8.96762466430664,-3.968309164047241
1682880521842956300,18.800956298828126,-0.3824000358581543,-8.913599967956543,-4.078925609588623
1682880521868270000,18.82627001953125,-0.7792010307312012,-8.85311508178711,-4.153472423553467
1682880521885146400,18.843146484375,-1.1861621141433716,-8.777732849121094,-4.216698169708252
1682880521902017000,18.86001708984375,-1.4421154260635376,-8.670838356018066,-4.355795383453369
1682880521918892000,18.87689208984375,-1.08961021900177,-8.661444664001465,-4.47529411315918
1682880521935761700,18.89376171875,-0.3761942386627197,-8.80340576171875,-4.312148571014404
1682880521952646000,18.91064599609375,0.16727496683597565,-9.014991760253906,-3.864982843399048
1682880521969511000,18.927510986328127,0.429004967212677,-9.242353439331055,-3.2605175971984863
1682880521986383600,18.944383544921877,0.6568315029144287,-9.447192192077637,-2.560321807861328
1682880522003256800,18.9612568359375,0.9454216957092285,-9.585100173950195,-1.8622982501983643
1682880522020128300,18.978128173828125,1.1791563034057617,-9.656413078308105,-1.2646726369857788
1682880522037003800,18.995003662109376,1.2915581464767456,-9.690139770507812,-0.818057656288147
1682880522053881300,19.01188134765625,1.3023793697357178,-9.711771965026855,-0.47056815028190613
1682880522070754600,19.028754638671874,1.2158414125442505,-9.733345031738281,-0.14084100723266602
1682880522087631000,19.045631103515625,1.0629873275756836,-9.75086784362793,0.16360042989253998
1682880522104499000,19.0624990234375,0.891325056552887,-9.762045860290527,0.37961938977241516
1682880522121368800,19.079368896484375,0.78070068359375,-9.766328811645508,0.4954337179660797
1682880522138253300,19.09625341796875,0.7762246131896973,-9.763498306274414,0.5546791553497314
1682880522155117800,19.113117919921876,0.8473834991455078,-9.754888534545898,0.6001898050308228
1682880522171990300,19.129990234375,0.9477088451385498,-9.743599891662598,0.6326473951339722
1682880522188862500,19.146862548828125,1.0313681364059448,-9.734211921691895,0.6461562514305115
1682880522205739000,19.163739013671876,1.0497418642044067,-9.732118606567383,0.6480896472930908
1682880522222614300,19.1806142578125,0.974693775177002,-9.740874290466309,0.6336186528205872
1682880522239485000,19.19748486328125,0.8198179602622986,-9.75903606414795,0.5702807307243347
1682880522256356000,19.214356201171874,0.6033095717430115,-9.781851768493652,0.43299978971481323
1682880522273231400,19.2312314453125,0.3116033971309662,-9.802360534667969,0.22966723144054413
1682880522290102800,19.248102783203127,-0.013130215927958488,-9.80996036529541,-0.024384351447224617
1682880522306977800,19.264977783203125,-0.15767602622509003,-9.803312301635742,-0.32607147097587585
1682880522323854800,19.281854736328125,-0.02145460434257984,-9.788530349731445,-0.6483168005943298
1682880522340725500,19.2987255859375,0.15426592528820038,-9.763934135437012,-0.9369657635688782
1682880522357597000,19.315596923828124,0.18616029620170593,-9.744715690612793,-1.114445686340332
1682880522374475500,19.3324755859375,0.15018866956233978,-9.741127014160156,-1.1506534814834595
1682880522391342600,19.349342529296877,0.1455277055501938,-9.751419067382812,-1.0605425834655762
1682880522408222200,19.36622216796875,0.19123874604701996,-9.777755737304688,-0.7713857889175415
1682880522425095700,19.383095703125,0.26254934072494507,-9.799976348876953,-0.357278048992157
1682880522441964000,19.399964111328124,0.3763276934623718,-9.802590370178223,-0.06096775084733963
1682880522458849500,19.416849609375,0.6026597023010254,-9.791434288024902,-0.02707991935312748
1682880522475710500,19.43371044921875,0.8578725457191467,-9.771183013916016,-0.1553909331560135
1682880522492593400,19.450593505859374,1.0389397144317627,-9.749878883361816,-0.31074297428131104
1682880522509449700,19.46744970703125,1.138893485069275,-9.734179496765137,-0.42990046739578247
1682880522526340400,19.48434033203125,1.2111598253250122,-9.722192764282227,-0.49816641211509705
1682880522543214000,19.501214111328125,1.263319969177246,-9.713507652282715,-0.5365577936172485
1682880522560087300,19.51808740234375,1.2985408306121826,-9.706576347351074,-0.5764468908309937
1682880522576961300,19.534961181640625,1.3266608715057373,-9.698780059814453,-0.640121340751648
1682880522593833700,19.551833740234375,1.3628926277160645,-9.686491966247559,-0.7419804334640503
1682880522610707700,19.568707763671874,1.3979376554489136,-9.668521881103516,-0.8953110575675964
1682880522627580400,19.585580322265624,1.4036918878555298,-9.647756576538086,-1.0892869234085083
1682880522644454100,19.6024541015625,1.3659964799880981,-9.627775192260742,-1.2946528196334839
1682880522661324800,19.61932470703125,1.285938024520874,-9.61085033416748,-1.4879647493362427
1682880522678204000,19.636203857421876,1.1770808696746826,-9.594858169555664,-1.6701189279556274
1682880522695073800,19.65307373046875,1.0584567785263062,-9.57524299621582,-1.8521649837493896
1682880522711947800,19.66994775390625,0.9425865411758423,-9.551054954528809,-2.0310094356536865
1682880522728820700,19.68682080078125,0.8290834426879883,-9.52570915222168,-2.1930861473083496
1682880522745683700,19.70368359375,0.7030633091926575,-9.5040283203125,-2.3270697593688965
1682880522762567400,19.7205673828125,0.5500180721282959,-9.486557006835938,-2.43697190284729
1682880522779438300,19.737438232421876,0.37566864490509033,-9.46858024597168,-2.537912368774414
1682880522796317400,19.7543173828125,0.17623281478881836,-9.446293830871582,-2.640563726425171
1682880522813187800,19.771187744140626,-0.06170259788632393,-9.42287826538086,-2.7279469966888428
1682880522830060800,19.788060791015624,-0.33984559774398804,-9.399312019348145,-2.788106679916382
1682880522846934800,19.804934814453127,-0.6385101079940796,-9.364790916442871,-2.851158857345581
1682880522863807700,19.821807861328125,-0.935021698474884,-9.30876350402832,-2.9510631561279297
1682880522880681700,19.838681640625,-1.2109006643295288,-9.23213005065918,-3.0883030891418457
1682880522897554700,19.8555546875,-1.4551622867584229,-9.14317798614502,-3.243600606918335
1682880522914428400,19.872428466796876,-1.6574267148971558,-9.048274040222168,-3.408487558364868
1682880522931304000,19.889303955078127,-1.7963800430297852,-8.95521068572998,-3.5795741081237793
1682880522948171800,19.906171875,-1.8547468185424805,-8.877263069152832,-3.740354061126709
1682880522965047800,19.9230478515625,-1.8449124097824097,-8.821911811828613,-3.8737998008728027
1682880522981921800,19.939921875,-1.8047500848770142,-8.782088279724121,-3.981698751449585
1682880522998794500,19.95679443359375,-1.7555830478668213,-8.745369911193848,-4.083205223083496
1682880523015666400,19.97366650390625,-1.7295200824737549,-8.703315734863281,-4.182958602905273
1682880523032541400,19.99054150390625,-1.8231825828552246,-8.645203590393066,-4.262931823730469
1682880523049415000,20.007414794921875,-1.7894480228424072,-8.604410171508789,-4.358680725097656
1682880523066287900,20.024287841796873,-1.1407698392868042,-8.716408729553223,-4.354192733764648
1682880523083162400,20.041162353515624,-0.4589848220348358,-8.938105583190918,-4.016924858093262
1682880523100034800,20.058034912109374,0.001189908478409052,-9.179386138916016,-3.460491895675659
1682880523116908500,20.074908447265624,0.27187564969062805,-9.400769233703613,-2.7906501293182373
1682880523133781500,20.091781494140626,0.5265842080116272,-9.571844100952148,-2.0829410552978516
1682880523150655500,20.108655517578125,0.8155530095100403,-9.674551963806152,-1.4050053358078003
1682880523167528000,20.12552783203125,1.1016902923583984,-9.716482162475586,-0.7825440168380737
1682880523184402000,20.14240185546875,1.2736592292785645,-9.724151611328125,-0.23408129811286926
1682880523201272300,20.159272216796875,1.2841687202453613,-9.723527908325195,0.20006395876407623
1682880523218151400,20.1761513671875,1.157965064048767,-9.729310989379883,0.4855364263057709
1682880523235021800,20.193021728515625,0.9545515775680542,-9.741318702697754,0.6570066213607788
1682880523251893000,20.20989306640625,0.7420058250427246,-9.752062797546387,0.7634215950965881
1682880523268770800,20.226770751953126,0.5557059645652771,-9.760544776916504,0.8118224740028381
1682880523285638700,20.243638671875,0.42429444193840027,-9.768184661865234,0.7991465926170349
1682880523302515000,20.260514892578126,0.3522380292415619,-9.77554702758789,0.7421072721481323
1682880523319389000,20.277388916015624,0.3078676164150238,-9.78252124786377,0.6660575270652771
1682880523336262000,20.294261962890626,0.2513454854488373,-9.789469718933105,0.5824189782142639
1682880523353135900,20.311135986328125,0.1599114090204239,-9.79639720916748,0.4910518229007721
1682880523370003500,20.32800341796875,0.024843651801347733,-9.802389144897461,0.38554057478904724
1682880523386884900,20.344884765625,-0.15130724012851715,-9.805439949035645,0.25800812244415283
1682880523403755000,20.361755126953124,-0.3787212371826172,-9.802149772644043,0.10268208384513855
1682880523420618200,20.3786181640625,-0.6718789935112,-9.786540985107422,-0.09106629341840744
1682880523437502000,20.395501953125,-0.9428378343582153,-9.757424354553223,-0.37394261360168457
1682880523454376000,20.4123759765625,-1.0636091232299805,-9.72286319732666,-0.7554985880851746
1682880523471261000,20.429260986328124,-1.0713316202163696,-9.67752456665039,-1.1974574327468872
1682880523488121300,20.446121337890624,-1.1109645366668701,-9.613334655761719,-1.60801100730896
1682880523504995300,20.462995361328126,-1.191453218460083,-9.551753044128418,-1.8922432661056519
1682880523521858600,20.479858642578126,-1.21669340133667,-9.535061836242676,-1.9591819047927856
1682880523538741800,20.49674169921875,-1.0797550678253174,-9.591578483581543,-1.7526915073394775
1682880523555615700,20.51361572265625,-0.7992454171180725,-9.666779518127441,-1.466523289680481
1682880523572488400,20.530488525390624,-0.4563874900341034,-9.718527793884277,-1.2562103271484375
1682880523589362400,20.547362548828126,-0.0041567860171198845,-9.738548278808594,-1.1818442344665527
1682880523606235400,20.5642353515625,0.4065838158130646,-9.728769302368164,-1.1924116611480713
1682880523623108400,20.5811083984375,0.6908181309700012,-9.70899486541748,-1.2224265336990356
1682880523639982600,20.597982666015625,0.882216215133667,-9.692540168762207,-1.2298296689987183
1682880523656855600,20.61485546875,1.0269962549209595,-9.680509567260742,-1.2120836973190308
1682880523673728500,20.631728515625,1.1219429969787598,-9.674493789672852,-1.175392746925354
1682880523690602500,20.6486025390625,1.174147605895996,-9.672938346862793,-1.1365535259246826
1682880523707475500,20.665475341796874,1.2056149244308472,-9.670743942260742,-1.12220299243927
1682880523724349200,20.68234912109375,1.2180516719818115,-9.66061782836914,-1.19371497631073
1682880523741221600,20.6992216796875,1.1926103830337524,-9.643972396850586,-1.344464659690857
1682880523758096400,20.716096435546874,1.1226768493652344,-9.62692642211914,-1.515912413597107
1682880523774968600,20.732968505859375,1.0164843797683716,-9.614888191223145,-1.6603599786758423
1682880523791840000,20.749840087890625,0.888163149356842,-9.609025001525879,-1.7646219730377197
1682880523808718000,20.766718017578125,0.7607297897338867,-9.604076385498047,-1.8490864038467407
1682880523825589200,20.78358935546875,0.6614087224006653,-9.595438003540039,-1.9303478002548218
1682880523842462500,20.80046240234375,0.5820724964141846,-9.581437110900879,-2.0232112407684326
1682880523859336200,20.817336181640623,0.48072972893714905,-9.562114715576172,-2.1379857063293457
1682880523876209000,20.834208984375,0.33152806758880615,-9.53802490234375,-2.269864320755005
1682880523893082600,20.85108251953125,0.13047067821025848,-9.5097074508667,-2.4051074981689453
1682880523909955800,20.867955810546874,-0.11769305169582367,-9.476844787597656,-2.5321290493011475
1682880523926829300,20.884829345703125,-0.40148913860321045,-9.437602043151855,-2.6469924449920654
1682880523943702300,20.901702392578127,-0.7011773586273193,-9.387251853942871,-2.7611491680145264
1682880523960576500,20.918576416015625,-0.9944173097610474,-9.321792602539062,-2.8898816108703613
1682880523977449000,20.935448974609375,-1.260866403579712,-9.241318702697754,-3.040454387664795
1682880523994322400,20.952322509765626,-1.4895209074020386,-9.149911880493164,-3.208824634552002
1682880524011195400,20.9691953125,-1.6833462715148926,-9.053629875183105,-3.3814539909362793
1682880524028069400,20.9860693359375,-1.8384448289871216,-8.95872688293457,-3.5492899417877197
1682880524044940000,21.00293994140625,-1.935552716255188,-8.87533950805664,-3.703795909881592
1682880524061818600,21.019818603515624,-1.9674553871154785,-8.811220169067383,-3.837663412094116
1682880524078689000,21.03668896484375,-1.952000379562378,-8.764046669006348,-3.9518747329711914
1682880524095561500,21.0535615234375,-1.9146416187286377,-8.720858573913574,-4.064096450805664
1682880524112436700,21.070436767578126,-1.8350780010223389,-8.676105499267578,-4.194498062133789
1682880524129309200,21.08730908203125,-1.72234308719635,-8.639102935791016,-4.316891193389893
1682880524146180000,21.10418017578125,-1.6455457210540771,-8.595274925231934,-4.432782173156738
1682880524163059000,21.121058837890626,-1.6420490741729736,-8.533981323242188,-4.55093240737915
1682880524179929000,21.13792919921875,-1.38353431224823,-8.519265174865723,-4.663054943084717
1682880524196802800,21.154802734375,-0.8874325156211853,-8.63925838470459,-4.561993598937988
1682880524213675500,21.171675537109376,-0.4532831907272339,-8.87500286102295,-4.155117511749268
1682880524230549200,21.18854931640625,-0.061744846403598785,-9.146800994873047,-3.5451838970184326
1682880524247422200,21.205422119140625,0.3917851150035858,-9.390325546264648,-2.8114774227142334
1682880524264296200,21.222296142578124,0.8811485171318054,-9.551496505737305,-2.0563623905181885
1682880524281169200,21.239169189453126,1.3251937627792358,-9.622713088989258,-1.3723664283752441
1682880524298043000,21.25604296875,1.6262820959091187,-9.638209342956543,-0.8344114422798157
1682880524314915800,21.272915771484374,1.7831921577453613,-9.63529109954834,-0.4663952887058258
1682880524331786800,21.289786865234376,1.8530687093734741,-9.63101863861084,-0.21387360990047455
1682880524348673800,21.306673828125,1.8385330438613892,-9.636134147644043,-0.029032597318291664
1682880524365524500,21.3235244140625,1.7582554817199707,-9.650513648986816,0.1106521263718605
1682880524382399700,21.340399658203125,1.6498990058898926,-9.667799949645996,0.21817775070667267
1682880524399285500,21.357285400390627,1.5281903743743896,-9.686040878295898,0.2852201759815216
1682880524416157200,21.3741572265625,1.4137111902236938,-9.703072547912598,0.29652079939842224
1682880524433028400,21.3910283203125,1.31508207321167,-9.717916488647461,0.26232394576072693
1682880524449902300,21.40790234375,1.239278793334961,-9.729389190673828,0.19819781184196472
1682880524466776000,21.424776123046875,1.1673755645751953,-9.7396879196167,0.1087816059589386
1682880524483649000,21.44164892578125,1.071934461593628,-9.751258850097656,-0.006788617465645075
