time,seconds_elapsed,z,y,x
1682880503155761400,0.113761474609375,-0.4524984359741211,-1.5386168956756592,-0.09178250283002853
1682880503172457200,0.130457275390625,-0.6333145499229431,-1.7163785696029663,-0.30344730615615845
1682880503189328000,0.147327880859375,-0.7386888265609741,-2.221564292907715,-0.5338962078094482
1682880503206202000,0.1642021484375,-0.6520986557006836,-2.10168194770813,-0.5160284042358398
1682880503223075000,0.181074951171875,-0.598647952079773,-1.9106338024139404,-0.28787025809288025
1682880503239946500,0.197946533203125,-0.6722571849822998,-1.4726433753967285,-0.12034045159816742
1682880503256821000,0.214821044921875,-0.6407976150512695,-0.45234572887420654,-0.0019853119738399982
1682880503273680000,0.231679931640625,-0.5560401082038879,-0.26801711320877075,-0.07666359096765518
1682880503290570500,0.248570556640625,-0.522595226764679,-0.7583891749382019,-0.18280142545700073
1682880503307443200,0.265443115234375,-0.6104071140289307,-1.4489723443984985,-0.22189679741859436
1682880503324313900,0.28231396484375,-0.764345109462738,-2.040442705154419,-0.168751522898674
1682880503341193500,0.299193359375,-0.7675521969795227,-2.3489296436309814,-0.021838432177901268
1682880503358059500,0.3160595703125,-0.5012149214744568,-2.136195659637451,0.20876319706439972
1682880503374943000,0.33294287109375,-0.299018532037735,-2.0595321655273438,0.19547687470912933
1682880503391808800,0.349808837890625,-0.31932979822158813,-2.2802071571350098,-0.0705549344420433
1682880503408685600,0.366685546875,-0.37339138984680176,-2.6557366847991943,-0.37048977613449097
1682880503425560800,0.383560791015625,-0.20662516355514526,-3.106555223464966,-0.46731191873550415
1682880503442432300,0.400432373046875,-0.07284568250179291,-3.349985122680664,-0.32879820466041565
1682880503459305500,0.417305419921875,-0.4178318381309509,-3.4576499462127686,-0.01466076634824276
1682880503476180000,0.434179931640625,-0.9221010804176331,-4.08500862121582,0.08032877743244171
1682880503493053000,0.451052978515625,-1.1100949048995972,-4.88508939743042,-0.08475755155086517
1682880503509927000,0.467927001953125,-1.0264062881469727,-4.0741658210754395,-0.6395758986473083
1682880503526788400,0.484788330078125,-0.8413141369819641,-2.054950714111328,-1.0740537643432617
1682880503543675400,0.50167529296875,-0.6983717083930969,-0.7183775305747986,-0.7606799602508545
1682880503560558000,0.51855810546875,-0.4300491213798523,0.30772337317466736,-0.2616030275821686
1682880503577421000,0.535421142578125,0.01114829070866108,0.6600399017333984,0.12950342893600464
1682880503594283800,0.55228369140625,0.28130343556404114,0.22372940182685852,0.1944078654050827
1682880503611168500,0.56916845703125,0.4369213581085205,-0.5450445413589478,0.03878994286060333
1682880503628041700,0.586041748046875,0.6834055185317993,-0.8782715201377869,-0.3321579694747925
1682880503644918500,0.60291845703125,0.7976372838020325,-0.5482515692710876,-0.5687155723571777
1682880503661786000,0.6197861328125,0.5864306092262268,0.2344195395708084,-0.5383250117301941
1682880503678663200,0.6366630859375,0.3196352422237396,1.0494664907455444,-0.27000242471694946
1682880503695531800,0.65353173828125,0.11835514008998871,1.6270395517349243,0.04459316283464432
1682880503712410000,0.67041015625,0.02382374368607998,1.9706512689590454,0.31749722361564636
1682880503729283300,0.687283447265625,0.1359175145626068,2.0867156982421875,0.5143485069274902
1682880503746157300,0.7041572265625,0.3367394804954529,1.8832975625991821,0.36789360642433167
1682880503763030500,0.721030517578125,0.4352414906024933,1.6007723808288574,-0.06398813426494598
1682880503779905000,0.737905029296875,0.5006040930747986,1.0407617092132568,-0.5670356750488281
1682880503796778000,0.754778076171875,0.6734789609909058,0.6533203721046448,-0.9566149711608887
1682880503813651500,0.7716513671875,0.8332201838493347,0.5155702829360962,-0.9387471675872803
1682880503830525200,0.788525146484375,0.8379544019699097,0.3937026560306549,-0.5357288122177124
1682880503847398700,0.805398681640625,0.8008443117141724,0.17104226350784302,-0.19776763021945953
1682880503864272000,0.82227197265625,0.7350236177444458,-0.07467827945947647,-0.043676864355802536
1682880503881145000,0.83914501953125,0.5821545720100403,-0.34437528252601624,-0.07254024595022202
1682880503898019300,0.856019287109375,0.25442537665367126,-0.6281222105026245,-0.2194533348083496
1682880503914893300,0.872893310546875,0.1869247704744339,-0.622624397277832,-0.37827831506729126
1682880503931763500,0.889763427734375,0.3251330256462097,-0.5337435007095337,-0.3784310221672058
1682880503948643300,0.906643310546875,0.47540587186813354,-0.5170974135398865,-0.18784105777740479
1682880503965503500,0.92350341796875,0.684779942035675,-0.6520986557006836,0.07620543986558914
1682880503982389200,0.94038916015625,1.0311405658721924,-0.6898195743560791,0.2571742534637451
1682880503999261000,0.957260986328125,1.2232576608657837,-0.7238753437995911,0.2744311988353729
1682880504016124400,0.97412451171875,1.1215485334396362,-0.8098546266555786,0.1108720451593399
1682880504033007900,0.9910078125,0.987463653087616,-0.7363980412483215,-0.0754418596625328
1682880504049881900,1.0078818359375,0.949895441532135,-0.47479501366615295,-0.06734789162874222
1682880504066755300,1.02475537109375,0.8349000811576843,-0.35475999116897583,0.09193521738052368
1682880504083629600,1.041629638671875,0.5823072791099548,0.05009094998240471,0.26801711320877075
1682880504100502500,1.05850244140625,0.29336804151535034,0.6133087277412415,0.5464189648628235
1682880504117376300,1.075376220703125,-0.04703662544488907,0.8339837789535522,0.7309002876281738
1682880504134249700,1.092249755859375,-0.24037547409534454,0.780380368232727,0.5644394755363464
1682880504151123200,1.109123291015625,-0.128434419631958,0.7157813310623169,0.08521570265293121
1682880504167986000,1.12598583984375,0.19058994948863983,0.6279694437980652,-0.42638394236564636
1682880504184871000,1.142870849609375,0.3153591752052307,0.5568036437034607,-0.599564254283905
1682880504201730800,1.159730712890625,0.30054569244384766,0.4873177409172058,-0.45402559638023376
1682880504218617900,1.176617919921875,0.33735033869743347,0.40653082728385925,-0.2971859276294708
1682880504235479300,1.193479248046875,0.4040873646736145,0.3715587854385376,-0.32162055373191833
1682880504252365300,1.210365234375,0.38637226819992065,0.42562034726142883,-0.5398521423339844
1682880504269239300,1.2272392578125,0.3404046595096588,0.4764748811721802,-0.8781188130378723
1682880504286109400,1.244109375,0.3836233615875244,0.5795583724975586,-1.2664763927459717
1682880504302988000,1.260988037109375,0.4239404797554016,0.4456261992454529,-1.713935136795044
1682880504319859500,1.277859375,0.4034765064716339,0.30863967537879944,-2.250274896621704
1682880504336734700,1.294734619140625,0.38957929611206055,0.1417207419872284,-2.649169921875
1682880504353596700,1.3115966796875,0.43829581141471863,0.038026362657547,-2.7038424015045166
1682880504370469000,1.32846923828125,0.6009386777877808,-0.10583240538835526,-2.5676193237304688
1682880504387353600,1.345353515625,0.8770498037338257,-0.18539759516716003,-2.4828617572784424
1682880504404229400,1.3622294921875,1.2622003555297852,-0.3049744665622711,-2.629316806793213
1682880504421101000,1.37910107421875,1.6803375482559204,-0.6352998614311218,-2.8345675468444824
1682880504437974000,1.39597412109375,1.8742872476577759,-1.048397421836853,-2.9416215419769287
1682880504454848800,1.412848876953125,1.8639025688171387,-1.4414892196655273,-2.9849929809570312
1682880504471718700,1.42971875,1.9671387672424316,-1.5642731189727783,-2.99812650680542
1682880504488587300,1.446587158203125,2.1371121406555176,-1.5070046186447144,-2.962238311767578
1682880504505471000,1.463470947265625,2.071902275085449,-1.419498085975647,-2.765997886657715
1682880504522332000,1.480331787109375,1.8767307996749878,-1.4845552444458008,-2.2311851978302
1682880504539215600,1.497215576171875,1.75608491897583,-1.4624114036560059,-1.5781704187393188
1682880504556089900,1.51408984375,1.697441816329956,-1.3704761266708374,-1.027475357055664
1682880504572960800,1.530960693359375,1.6740761995315552,-1.2142473459243774,-0.7806857824325562
1682880504589839000,1.547839111328125,1.6537649631500244,-1.0850493907928467,-0.8683449625968933
1682880504606710000,1.5647099609375,1.6924021244049072,-1.186300277709961,-1.1678216457366943
1682880504623583700,1.581583740234375,1.7835737466812134,-1.4824172258377075,-1.3019065856933594
1682880504640457000,1.59845703125,1.8550450801849365,-1.7402023077011108,-1.141401767730713
1682880504657331200,1.615331298828125,1.6746870279312134,-1.8332066535949707,-0.8659014701843262
1682880504674204400,1.632204345703125,1.2773191928863525,-1.842369556427002,-0.630871057510376
1682880504691078400,1.649078369140625,1.0601565837860107,-1.788002610206604,-0.5632177591323853
1682880504707951400,1.665951416015625,1.0800096988677979,-1.6253596544265747,-0.6675229668617249
1682880504724825300,1.682825439453125,0.9871582388877869,-1.4366023540496826,-0.8434522151947021
1682880504741698300,1.6996982421875,0.801913321018219,-1.3781119585037231,-0.8284859657287598
1682880504758572300,1.716572265625,0.5685628056526184,-1.291063666343689,-0.7040221691131592
1682880504775440100,1.733440185546875,0.2747366428375244,-1.302364706993103,-0.6382014751434326
1682880504792319700,1.75031982421875,0.03039054572582245,-1.606881022453308,-1.067945122718811
1682880504809186300,1.767186279296875,0.0959058403968811,-1.3083206415176392,-1.6201673746109009
1682880504826067000,1.78406689453125,0.3312416672706604,-1.1797335147857666,-1.5233452320098877
1682880504842929400,1.800929443359375,0.3724750876426697,-1.1374311447143555,-1.0548115968704224
1682880504859812400,1.817812255859375,0.194713294506073,-0.7710646390914917,-0.816726803779602
1682880504876688600,1.834688720703125,0.3300199508666992,-0.395077109336853,-0.6594290137290955
1682880504893558500,1.85155859375,0.4628831446170807,-1.1059715747833252,-0.5789475440979004
1682880504910436900,1.868436767578125,0.3865249752998352,-1.77670156955719,-1.1650726795196533
1682880504927308300,1.885308349609375,0.2932153046131134,-1.7133243083953857,-1.9567540884017944
1682880504944181200,1.90218115234375,0.024892758578062057,-1.5712981224060059,-2.2148447036743164
1682880504961055200,1.91905517578125,-0.020005837082862854,-1.3588697910308838,-2.079996109008789
1682880504977926000,1.93592578125,0.3400992155075073,-1.1424707174301147,-1.9466748237609863
1682880504994805000,1.952804931640625,0.33796119689941406,-0.45692721009254456,-2.0948095321655273
1682880505011673000,1.969673095703125,-0.11102475970983505,0.2802344262599945,-2.13008713722229
1682880505028552400,1.986552490234375,-0.6594290137290955,0.8712465763092041,-1.845118522644043
1682880505045422600,2.003422607421875,-0.9763153791427612,1.1797335147857666,-1.354135513305664
1682880505062297000,2.020297119140625,-1.1365147829055786,1.0322095155715942,-1.066265344619751
1682880505079169800,2.037169677734375,-1.1980594396591187,0.855516791343689,-1.0343475341796875
1682880505096033800,2.05403369140625,-1.2527319192886353,0.7415903806686401,-0.8901833891868591
1682880505112922600,2.070922607421875,-1.2768610715866089,0.6152940392494202,-0.517250120639801
1682880505129791200,2.087791259765625,-0.9450085163116455,0.6893614530563354,-0.09040805697441101
1682880505146671400,2.10467138671875,-0.8112290501594543,0.607200026512146,-0.21624629199504852
1682880505163538000,2.121537841796875,-0.7423539757728577,0.6032294034957886,-0.3822489380836487
1682880505180411400,2.138411376953125,-1.0441213846206665,0.9352346658706665,-0.5838344693183899
1682880505197285400,2.155285400390625,-1.2113457918167114,1.5876387357711792,-0.6553056836128235
1682880505214158300,2.172158447265625,-1.274570345878601,1.9049832820892334,-0.3197879493236542
1682880505231018800,2.189018798828125,-1.168585181236267,1.685835361480713,-0.015271631069481373
1682880505247900200,2.205900146484375,-0.7817547917366028,1.2337950468063354,-0.0503963828086853
1682880505264782300,2.2227822265625,-0.19868391752243042,0.15836681425571442,-0.31459560990333557
1682880505281650000,2.23964990234375,0.38438695669174194,-0.4095851480960846,-0.6520986557006836
1682880505298518800,2.256518798828125,0.6340781450271606,-0.19898934662342072,-0.5093088746070862
1682880505315399700,2.273399658203125,0.44776421785354614,-0.13377949595451355,0.17837265133857727
1682880505332263400,2.290263427734375,0.08078692853450775,0.08674286305904388,0.588874101638794
1682880505349147000,2.30714697265625,-0.2272418737411499,0.6600399017333984,0.6105598211288452
1682880505366021000,2.324021240234375,-0.36361753940582275,1.5457944869995117,0.8837692737579346
1682880505382883600,2.340883544921875,0.07773260027170181,2.0916025638580322,1.7256942987442017
1682880505399768000,2.35776806640625,1.4498887062072754,1.7733417749404907,2.442697286605835
1682880505416641300,2.374641357421875,2.2684481143951416,0.8516988754272461,1.7869335412979126
1682880505433515300,2.391515380859375,2.0413589477539062,0.6667594313621521,0.18799377977848053
1682880505450388200,2.40838818359375,1.337031364440918,1.2469286918640137,-0.8434522151947021
1682880505467253800,2.425253662109375,1.275792121887207,2.090991735458374,-0.5216789245605469
1682880505484133600,2.442133544921875,1.4497359991073608,2.906191349029541,0.33276882767677307
1682880505501009400,2.459009521484375,1.6548339128494263,2.783712863922119,1.4199562072753906
1682880505517869300,2.475869384765625,2.169335126876831,1.3811663389205933,2.3771820068359375
1682880505534759400,2.492759521484375,3.2681291103363037,-0.4164573848247528,1.5751160383224487
1682880505551626800,2.509626708984375,4.086230278015137,-0.532369077205658,1.2664763927459717
1682880505568503600,2.526503662109375,3.0671544075012207,-0.03145955875515938,1.048092007637024
1682880505585388000,2.543387939453125,2.1168007850646973,-0.038026362657547,0.7420485615730286
1682880505602251000,2.5602509765625,1.944536805152893,-0.6340781450271606,0.6438519954681396
1682880505619125500,2.57712548828125,1.6190983057022095,-2.721557378768921,0.0403171069920063
1682880505635993000,2.5939931640625,1.4315626621246338,-2.3608415126800537,-0.9812023043632507
1682880505652861000,2.61086083984375,1.298241376876831,-0.9100365042686462,-1.5861116647720337
1682880505669745200,2.6277451171875,1.7951802015304565,0.43020185828208923,-1.6241379976272583
1682880505686618000,2.6446181640625,2.518597364425659,1.997223973274231,-1.4098769426345825
1682880505703492400,2.661492431640625,2.5525004863739014,2.601675033569336,-1.54640531539917
1682880505720348400,2.678348388671875,1.9843957424163818,2.0189096927642822,-1.6030631065368652
1682880505737239000,2.695239013671875,1.3261884450912476,1.2084441184997559,-0.8491026759147644
1682880505754112500,2.712112548828125,1.2927435636520386,0.47601673007011414,-0.10430523753166199
1682880505770986800,2.72898681640625,1.6027576923370361,-0.5900958180427551,-0.14294247329235077
1682880505787859500,2.745859375,1.8008307218551636,-1.527010440826416,-0.1722639948129654
1682880505804736000,2.762736083984375,1.996002197265625,-1.815796971321106,0.21624629199504852
1682880505821601500,2.7796015625,2.806162118911743,-1.9811886548995972,1.2770137786865234
1682880505838483500,2.7964833984375,3.2556064128875732,-2.1510093212127686,1.9535470008850098
1682880505855353600,2.813353515625,2.0700695514678955,-1.4327844381332397,1.7603609561920166
1682880505872224800,2.830224853515625,-0.05054909735918045,-0.09896016865968704,0.9187413454055786
1682880505889103400,2.847103271484375,-1.026253581047058,0.7641924023628235,0.08933904021978378
1682880505905975000,2.86397509765625,-1.147357702255249,1.387580394744873,-0.37690386176109314
1682880505922847700,2.88084765625,-1.0586295127868652,1.6980526447296143,-0.6690501570701599
1682880505939722200,2.89772216796875,-0.8582656979560852,1.7702875137329102,-0.8998045325279236
1682880505956595000,2.914594970703125,-0.3701843321323395,1.5737415552139282,-1.076344609260559
1682880505973469400,2.931469482421875,0.4486805200576782,0.9210320711135864,-1.1377365589141846
1682880505990342000,2.948341796875,1.2290608882904053,0.09025534242391586,-1.109636664390564
1682880506007216000,2.965216064453125,1.5433510541915894,-0.3136793076992035,-1.0380127429962158
1682880506024089000,2.982089111328125,1.4735597372055054,-0.4489859640598297,-0.9387471675872803
1682880506040963000,2.998963134765625,1.1633929014205933,-0.5516113042831421,-0.8613200187683105
1682880506057836300,3.015836181640625,0.8365799784660339,-0.7605272531509399,-0.8199338912963867
1682880506074710300,3.032710205078125,0.6482807397842407,-1.096961259841919,-0.778853178024292
1682880506091580700,3.04958056640625,0.603687584400177,-1.3924673795700073,-0.6994407176971436
1682880506108460500,3.06646044921875,0.6783658266067505,-1.5373951196670532,-0.5155702829360962
1682880506125330000,3.083329833984375,0.7823656797409058,-1.521665334701538,-0.2177734673023224
1682880506142204400,3.100204345703125,0.8802568316459656,-1.3979650735855103,0.09926560521125793
1682880506159078700,3.11707861328125,0.9240863919258118,-1.4046846628189087,0.3995058834552765
1682880506175937800,3.133937744140625,0.8619308471679688,-1.2851077318191528,0.607200026512146
1682880506192827000,3.150826904296875,0.7429648637771606,-1.0427470207214355,0.7081455588340759
1682880506209698600,3.167698486328125,0.6075055003166199,-0.7806857824325562,0.7107416987419128
1682880506226569000,3.18456884765625,0.46181413531303406,-0.6068946123123169,0.6020076870918274
1682880506243448600,3.201448486328125,0.31230485439300537,-0.4430300295352936,0.43875396251678467
1682880506260318700,3.218318603515625,0.15729780495166779,-0.2148718535900116,0.2915354371070862
1682880506277192700,3.235192626953125,0.017562376335263252,-0.006719517521560192,0.1999056488275528
1682880506294066200,3.252066162109375,-0.0832303911447525,0.12339477986097336,0.16172657907009125
1682880506310940200,3.268940185546875,-0.1670716404914856,0.14752395451068878,0.1365283876657486
1682880506327812900,3.285812744140625,-0.2275473028421402,0.03573561832308769,0.07040221989154816
1682880506344687400,3.302687255859375,-0.28496864438056946,-0.07925976812839508,-0.016951510682702065
1682880506361557800,3.319557861328125,-0.3465133011341095,-0.0861319974064827,-0.09407325088977814
1682880506378436600,3.3364365234375,-0.389426589012146,-0.02474004216492176,-0.1690569519996643
1682880506395304400,3.353304443359375,-0.4118759036064148,0.11316278576850891,-0.22999076545238495
1682880506412184000,3.37018408203125,-0.4115704596042633,0.31551191210746765,-0.2701551616191864
1682880506429043700,3.387043701171875,-0.3880521357059479,0.5192354321479797,-0.3026837408542633
1682880506445936600,3.4039365234375,-0.3471241891384125,0.68325275182724,-0.3338378667831421
1682880506462801700,3.4208017578125,-0.28298333287239075,0.7640396952629089,-0.36651915311813354
1682880506479675100,3.437675048828125,-0.1976149082183838,0.7438811659812927,-0.40103304386138916
1682880506496546000,3.454546142578125,-0.08994990587234497,0.6162103414535522,-0.42562034726142883
1682880506513425000,3.4714248046875,0.02367102913558483,0.4121813178062439,-0.4141666293144226
1682880506530295300,3.48829541015625,0.12889257073402405,0.1921171247959137,-0.34605515003204346
1682880506547169500,3.50516943359375,0.22602014243602753,0.003817907767370343,-0.23228150606155396
1682880506564042500,3.52204248046875,0.327729195356369,-0.1287398487329483,-0.12171489745378494
1682880506580916700,3.538916748046875,0.4355469346046448,-0.1915062516927719,-0.04902193695306778
1682880506597789700,3.555789794921875,0.5364924073219299,-0.17776179313659668,-0.009162978269159794
1682880506614663700,3.57266357421875,0.6233879923820496,-0.09453139454126358,0.031612277030944824
1682880506631533800,3.589533935546875,0.6806566119194031,0.04398229718208313,0.09147707372903824
1682880506648413200,3.6064130859375,0.7076873779296875,0.1771509200334549,0.15393804013729095
1682880506665279200,3.623279296875,0.7214318513870239,0.23915374279022217,0.18310685455799103
1682880506682157800,3.64015771484375,0.7408268451690674,0.21074850857257843,0.17928895354270935
1682880506699031000,3.657031005859375,0.7735081315040588,0.04398229718208313,0.10277807712554932
1682880506715894500,3.67389453125,0.8269588351249695,-0.2025018334388733,-0.006108652334660292
1682880506732774700,3.690774658203125,0.8341364860534668,-0.22449298202991486,0.14798210561275482
1682880506749655000,3.707655029296875,0.7422012686729431,-0.0019853119738399982,0.5468770861625671
1682880506766525200,3.724525146484375,0.5079344511032104,0.26572638750076294,0.964403510093689
1682880506783399000,3.74139892578125,0.10567969083786011,0.31642818450927734,1.1432342529296875
1682880506800270300,3.758270263671875,-0.37110063433647156,0.05757404863834381,0.9775370955467224
1682880506817148000,3.77514794921875,-0.8396342992782593,-0.2822197377681732,0.7002043128013611
1682880506834019300,3.792019287109375,-1.2487612962722778,-0.9337075352668762,0.2765692472457886
1682880506850893000,3.80889306640625,-1.6661349534988403,-1.6614007949829102,0.14706580340862274
1682880506867766300,3.825766357421875,-2.1171061992645264,-2.0031797885894775,0.41233405470848083
1682880506884640500,3.842640625,-2.4917192459106445,-1.6841554641723633,0.7754934430122375
1682880506901511000,3.859510986328125,-2.6894869804382324,-1.0366383790969849,0.9230173826217651
1682880506918390000,3.87639013671875,-2.6720774173736572,-0.21823160350322723,0.9082038998603821
1682880506935260400,3.893260498046875,-2.338850259780884,0.8816312551498413,0.760832667350769
1682880506952135000,3.910135009765625,-1.700343370437622,2.1424572467803955,0.5433646440505981
1682880506969007400,3.92700732421875,-1.0639744997024536,3.068681478500366,0.2762638032436371
1682880506985880000,3.943880126953125,-0.7672467231750488,3.5524868965148926,-0.12965615093708038
1682880507002755300,3.96075537109375,-0.6973026990890503,3.257286310195923,-0.7499898076057434
1682880507019618300,3.977618408203125,-0.7666358947753906,1.9816468954086304,-1.3321443796157837
1682880507036502000,3.994501953125,-0.9625709056854248,0.25182920694351196,-1.5293011665344238
1682880507053375700,4.011375732421875,-1.217149019241333,-1.1142182350158691,-1.3764320611953735
1682880507070249000,4.0282490234375,-1.5215126276016235,-1.0853548049926758,-1.3683381080627441
1682880507087120100,4.0451201171875,-1.585806131362915,0.5549710988998413,-1.2344059944152832
1682880507103995600,4.06199560546875,-1.0955867767333984,1.3025174140930176,-0.3104722499847412
1682880507120872700,4.078872802734375,-0.346818745136261,0.5241223573684692,0.6233879923820496
1682880507137742600,4.09574267578125,0.10995574295520782,0.03390302136540413,0.8176431059837341
1682880507154616800,4.112616943359375,0.3173444867134094,0.17470745742321014,0.39064833521842957
1682880507171490300,4.129490234375,0.4112650156021118,-0.022143865004181862,-0.14752395451068878
1682880507188363800,4.14636376953125,0.40362921357154846,-0.6026185750961304,-0.46899178624153137
1682880507205236700,4.16323681640625,0.27488934993743896,-1.4187345504760742,-0.736245334148407
1682880507222111000,4.180111083984375,0.0013744467869400978,-2.1119139194488525,-1.144303321838379
1682880507238984000,4.19698388671875,0.023976460099220276,-1.0131200551986694,-0.7188356518745422
1682880507255847700,4.21384765625,0.15760323405265808,0.21639901399612427,0.2561052441596985
1682880507272731400,4.2307314453125,0.12568552792072296,0.7843509912490845,1.0450377464294434
1682880507289605600,4.247605712890625,0.11239920556545258,0.5143485069274902,1.1273517608642578
1682880507306481700,4.264481689453125,0.20341812074184418,0.12370020896196365,0.7159340381622314
1682880507323352000,4.28135205078125,0.3257438838481903,0.41431936621665955,0.49586987495422363
1682880507340225300,4.298225341796875,0.375529408454895,0.2528982162475586,0.32681289315223694
1682880507357094400,4.315094482421875,0.5566509366035461,-0.42210787534713745,0.06215553730726242
1682880507373972200,4.33197216796875,0.7924449443817139,-0.7509061098098755,-0.05207626149058342
1682880507390846500,4.348846435546875,0.8720101118087769,-0.9790642857551575,-0.013591751456260681
1682880507407708700,4.365708740234375,0.8290968537330627,-1.5244141817092896,-0.10048733651638031
1682880507424593700,4.38259375,0.7153232097625732,-2.080148935317993,-0.3274237811565399
1682880507441465300,4.39946533203125,0.5942191481590271,-2.381610870361328,-0.5473352670669556
1682880507458328600,4.41632861328125,0.5210680365562439,-2.6088528633117676,-0.6097962260246277
1682880507475216000,4.4332158203125,0.561079740524292,-2.180636167526245,-0.3956879675388336
1682880507492087600,4.450087646484375,0.588263213634491,-1.4865405559539795,-0.1918116807937622
1682880507508950800,4.46695068359375,0.4966334402561188,-1.2927435636520386,-0.15683965384960175
1682880507525824800,4.48382470703125,0.3136793076992035,-1.4558446407318115,-0.11820242553949356
1682880507542695700,4.50069580078125,0.23090706765651703,-1.4196507930755615,-0.09483683109283447
1682880507559570200,4.517570068359375,0.2834414839744568,-1.1701123714447021,-0.43768495321273804
1682880507576446500,4.534446533203125,0.4236350357532501,-1.398576021194458,-0.7486153841018677
1682880507593318000,4.55131787109375,0.6163630485534668,-1.4366023540496826,-0.9427177906036377
1682880507610201600,4.56820166015625,0.6837109327316284,-2.2766947746276855,-1.0954340696334839
1682880507627075600,4.58507568359375,0.3608686327934265,-3.068070650100708,-1.3040446043014526
1682880507643949000,4.601948974609375,0.2272418737411499,-1.5948164463043213,-1.0925325155258179
1682880507660820000,4.618820068359375,0.2076941877603531,-0.3271183371543884,-0.7777841687202454
1682880507677694200,4.635694091796875,-0.18967366218566895,-0.636521577835083,-0.009926560334861279
1682880507694573800,4.65257373046875,-0.47311514616012573,0.4726569950580597,0.8936958312988281
1682880507711453400,4.669453369140625,-0.6388123035430908,1.1439979076385498,1.406822681427002
1682880507728316000,4.68631591796875,-0.8107708692550659,1.1088731288909912,1.5282320976257324
1682880507745190100,4.703190185546875,-0.7373143434524536,0.6466008424758911,1.5372424125671387
1682880507762064000,4.72006396484375,-0.5277875661849976,0.3576616048812866,1.2643383741378784
1682880507778933000,4.73693310546875,-0.35124751925468445,0.3173444867134094,0.630871057510376
1682880507795800300,4.75380029296875,-0.21853704750537872,0.154396191239357,0.18646661937236786
1682880507812683800,4.770683837890625,-0.18387043476104736,-0.13545936346054077,-0.06398813426494598
1682880507829558000,4.78755810546875,-0.09544769674539566,-0.39064833521842957,-0.32971450686454773
1682880507846431000,4.804430908203125,0.024129176512360573,-0.6368269920349121,-0.6336199641227722
1682880507863305000,4.821304931640625,0.09117163717746735,-0.9589056968688965,-0.9440922141075134
1682880507880178400,4.838178466796875,0.14095716178417206,-1.391703724861145,-1.1539244651794434
1682880507897052200,4.85505224609375,0.2220495194196701,-1.855197787284851,-1.1647672653198242
1682880507913925000,4.871925048828125,0.2744311988353729,-2.4042129516601562,-1.1624765396118164
1682880507930798800,4.888798828125,0.27809640765190125,-2.9834659099578857,-1.2244794368743896
1682880507947664100,4.9056640625,0.2252565622329712,-3.1635184288024902,-1.1763737201690674
1682880507964546300,4.92254638671875,0.168751522898674,-3.0754010677337646,-1.0894781351089478
1682880507981419300,4.939419189453125,0.1898263692855835,-3.00423526763916,-1.0997101068496704
1682880507998293500,4.95629345703125,0.22403483092784882,-2.8634307384490967,-1.1178834438323975
1682880508015166200,4.973166259765625,0.28557950258255005,-2.6392433643341064,-1.0548115968704224
1682880508032040400,4.99004052734375,0.385303258895874,-2.4381158351898193,-0.9286679029464722
1682880508048913000,5.006912841796875,0.4888449013233185,-2.4083361625671387,-0.8364272117614746
1682880508065777400,5.02377734375,0.6081163287162781,-2.406045436859131,-0.722348153591156
1682880508082647000,5.04064697265625,0.7499898076057434,-2.3012821674346924,-0.5450445413589478
1682880508099537200,5.057537109375,0.8988882303237915,-2.141082763671875,-0.3804163336753845
1682880508116407600,5.074407470703125,1.0134254693984985,-1.9352210760116577,-0.28420504927635193
1682880508133281300,5.09128125,1.1175779104232788,-1.5166256427764893,-0.25961771607398987
1682880508150154200,5.108154296875,1.1867583990097046,-0.7550294399261475,-0.29306259751319885
1682880508167028200,5.1250283203125,1.1577423810958862,0.17012597620487213,-0.22800545394420624
1682880508183901700,5.141901611328125,1.058171272277832,0.9538660645484924,-0.08674286305904388
1682880508200776700,5.158776611328125,1.0016663074493408,1.3753631114959717,-0.05421429127454758
1682880508217647000,5.175647216796875,0.9967793822288513,1.6540703773498535,-0.10354165732860565
1682880508234523000,5.19252294921875,0.9743300676345825,1.9065104722976685,-0.1609629988670349
1682880508251393300,5.209393310546875,0.9033169746398926,2.1343631744384766,-0.1941024363040924
1682880508268271600,5.226271728515625,0.7921395301818848,2.072054862976074,-0.2799290120601654
1682880508285132000,5.243132080078125,0.5522221922874451,1.5442672967910767,-0.4518875777721405
1682880508302006300,5.26000634765625,0.23182335495948792,0.8310821652412415,-0.5305364727973938
1682880508318887200,5.27688720703125,0.03848451003432274,0.17577648162841797,-0.3854559659957886
1682880508335755800,5.293755859375,0.0633772686123848,-0.33658674359321594,-0.07559457421302795
1682880508352637000,5.310636962890625,0.13515393435955048,-0.8854491710662842,0.29107728600502014
1682880508369510700,5.3275107421875,0.05955936014652252,-1.236696720123291,0.7670940160751343
1682880508386372900,5.344372802734375,-0.1036943718791008,-1.4538593292236328,1.0997101068496704
1682880508403260000,5.361260009765625,-0.32100969552993774,-1.7696765661239624,1.1623238325119019
1682880508420131600,5.378131591796875,-0.6641632318496704,-3.1703906059265137,0.192422553896904
1682880508437005000,5.395005126953125,-1.0193814039230347,-4.275445938110352,-0.289244681596756
1682880508453878000,5.4118779296875,-1.5326608419418335,-4.07248592376709,0.5760459303855896
1682880508470752000,5.428751953125,-2.5004241466522217,-3.1844406127929688,1.3523029088974
1682880508487625000,5.445625,-3.266754627227783,-2.2040019035339355,1.412473201751709
1682880508504488400,5.462488525390625,-3.3449454307556152,-1.4110987186431885,1.5590808391571045
1682880508521367800,5.479367919921875,-3.0166053771972656,-1.0586295127868652,1.7440202236175537
1682880508538246100,5.49624609375,-2.5561656951904297,-0.9248499870300293,1.6516269445419312
1682880508555119000,5.513119140625,-2.048689365386963,-0.9857838153839111,1.2596040964126587
1682880508571991000,5.529990966796875,-1.5329663753509521,-1.0002918243408203,0.9361509680747986
1682880508588865300,5.546865234375,-1.1545352935791016,-0.6933320760726929,0.6820310354232788
1682880508605733600,5.563733642578125,-0.8914051055908203,-0.016035212203860283,0.39095374941825867
1682880508622613000,5.580613037109375,-0.6998988389968872,0.8926268219947815,0.08750644326210022
1682880508639487000,5.597487060546875,-0.6009386777877808,1.4245377779006958,-0.1469130963087082
1682880508656360000,5.61435986328125,-0.4766276180744171,1.2959506511688232,-0.29336804151535034
1682880508673234400,5.631234375,-0.40301835536956787,0.8701775670051575,-0.3197879493236542
1682880508690091800,5.648091796875,-0.39965859055519104,0.5316054821014404,-0.21899518370628357
1682880508706985700,5.66498583984375,-0.3937026560306549,0.3865249752998352,-0.2102903574705124
1682880508723854000,5.68185400390625,-0.1973094791173935,0.6947064995765686,-0.4207334518432617
1682880508740728000,5.69872802734375,0.20387627184391022,1.3179417848587036,-0.7072292566299438
1682880508757601500,5.7156015625,0.6452264189720154,1.8156442642211914,-0.8127561807632446
1682880508774475300,5.732475341796875,0.931569516658783,1.9984456300735474,-0.7531968355178833
1682880508791348000,5.749347900390625,1.0235047340393066,1.8058704137802124,-0.5832235813140869
1682880508808222200,5.76622216796875,1.0389291048049927,1.3141238689422607,-0.0010690141934901476
1682880508825095400,5.783095458984375,1.035416603088379,1.0039570331573486,0.960280179977417
1682880508841969200,5.79996923828125,0.9969320893287659,1.6928603649139404,1.3912456035614014
1682880508858831600,5.81683154296875,0.8217664957046509,2.205528974533081,1.2060006856918335
1682880508875719700,5.8337197265625,0.4161519408226013,1.418123722076416,0.7976372838020325
1682880508892589300,5.85058935546875,-0.1915062516927719,0.24953845143318176,0.41202861070632935
1682880508909463600,5.867463623046875,-0.8074111342430115,-0.3686571717262268,0.05345070734620094
1682880508926334200,5.884334228515625,-1.1766791343688965,-0.28496864438056946,-0.15913039445877075
1682880508943212500,5.901212646484375,-1.482569932937622,0.2811507284641266,-0.038026362657547
1682880508960080600,5.91808056640625,-1.5702290534973145,0.717613935470581,-0.1319468915462494
1682880508976960000,5.9349599609375,-0.8636107444763184,-0.33292156457901,-0.22708915174007416
1682880508993827800,5.951827880859375,0.6449210047721863,-0.2816088795661926,1.3535246849060059
1682880509010707000,5.96870703125,0.8110763430595398,0.7724391222000122,2.1138992309570312
1682880509027574800,5.98557470703125,0.5606215596199036,1.0308351516723633,1.4077389240264893
1682880509044455400,6.002455322265625,0.38866302371025085,0.9443976879119873,0.7709119319915771
1682880509061323000,6.019322998046875,0.26282477378845215,0.841008722782135,0.7018841505050659
1682880509078198500,6.036198486328125,0.2799290120601654,0.9306532144546509,0.8300131559371948
1682880509095084000,6.053083984375,0.3634648323059082,1.0899362564086914,1.036943793296814
1682880509111945700,6.06994580078125,0.4605923891067505,1.2863295078277588,1.1508700847625732
1682880509128818700,6.086818603515625,0.5204572081565857,1.342987298965454,0.940732479095459
1682880509145682700,6.1036826171875,0.5590944290161133,1.5638149976730347,0.46899178624153137
1682880509162564000,6.120564208984375,0.603687584400177,1.9549214839935303,-0.05849034711718559
1682880509179441400,6.13744140625,0.6270532011985779,2.3359487056732178,-0.5309945940971375
1682880509196312600,6.1543125,0.6327036619186401,2.560594320297241,-0.9767735004425049
1682880509213184300,6.171184326171875,0.5768095254898071,2.434145212173462,-1.4688254594802856
1682880509230062000,6.18806201171875,0.4761694669723511,1.9266690015792847,-1.9398025274276733
1682880509246932500,6.204932373046875,0.43218716979026794,1.2602150440216064,-2.1725423336029053
1682880509263805400,6.221805419921875,0.4450153410434723,0.7379252314567566,-2.059684991836548
1682880509280683500,6.23868359375,0.4288274049758911,0.46822822093963623,-1.7696765661239624
1682880509297553400,6.255553466796875,0.35033121705055237,0.33169981837272644,-1.49906325340271
1682880509314424800,6.2724248046875,0.2848159074783325,0.21731531620025635,-1.378722906112671
1682880509331306200,6.28930615234375,0.29306259751319885,0.09162978827953339,-1.441641926765442
1682880509348171500,6.306171630859375,0.3761402666568756,-0.021380282938480377,-1.5893186330795288
1682880509365047800,6.3230478515625,0.4508185386657715,-0.1258382350206375,-1.6998852491378784
1682880509381922300,6.33992236328125,0.494189977645874,-0.22907446324825287,-1.6604844331741333
1682880509398795000,6.356794921875,0.5251913666725159,-0.3462078869342804,-1.5224288702011108
1682880509415666700,6.373666748046875,0.5174028873443604,-0.746019184589386,-1.5496124029159546
1682880509432541700,6.390541748046875,0.632398247718811,-1.3962851762771606,-1.3434454202651978
1682880509449427500,6.407427490234375,0.8796459436416626,-1.626123309135437,-0.2767219543457031
1682880509466288600,6.42428857421875,0.9447031021118164,-1.1994339227676392,0.9034696817398071
1682880509483163100,6.4411630859375,0.8575021028518677,-0.4004221558570862,1.4815009832382202
1682880509500035800,6.458035888671875,0.7787004709243774,0.3805690407752991,1.425148606300354
1682880509516910000,6.47491015625,0.66584312915802,0.780380368232727,1.405295491218567
1682880509533783000,6.491782958984375,0.5676465034484863,0.9080511927604675,1.72935950756073
1682880509550656500,6.508656494140625,0.6716463565826416,0.5737552046775818,1.6076445579528809
1682880509567529700,6.52552978515625,0.8727737069129944,-0.6281222105026245,0.9308059215545654
1682880509584404000,6.542404052734375,0.8576548099517822,-3.012481927871704,0.9014843702316284
1682880509601274400,6.5592744140625,0.4288274049758911,-4.61493444442749,2.1959078311920166
1682880509618153500,6.576153564453125,-0.6023131608963013,-2.5213463306427,3.7201693058013916
1682880509635024100,6.593024169921875,-1.870163917541504,-0.0377209298312664,3.328146457672119
1682880509651898000,6.609898193359375,-2.850602626800537,1.0755809545516968,3.0056097507476807
1682880509668770600,6.6267705078125,-3.204446315765381,1.4981470108032227,3.3851096630096436
1682880509685638100,6.64363818359375,-3.3938145637512207,1.4892895221710205,3.67954683303833
1682880509702518000,6.66051806640625,-3.249803066253662,1.1271990537643433,3.3794591426849365
1682880509719392000,6.67739208984375,-2.4781274795532227,1.2108876705169678,2.1985039710998535
1682880509736265000,6.694264892578125,-1.7875443696975708,3.1169400215148926,0.5242751240730286
1682880509753139200,6.71113916015625,-1.8419114351272583,5.556124687194824,-0.44257187843322754
1682880509770012000,6.728011962890625,-1.7247780561447144,6.199366092681885,-0.5422956347465515
1682880509786885400,6.744885498046875,-1.4110987186431885,5.429828643798828,-0.18509216606616974
1682880509803758800,6.7617587890625,-1.3009902238845825,4.172209739685059,0.21395555138587952
1682880509820646700,6.778646728515625,-1.5734361410140991,2.1096231937408447,-0.11270463466644287
1682880509837506000,6.795506103515625,-2.0891592502593994,0.43875396251678467,-0.707840085029602
1682880509854380000,6.812380126953125,-2.362368583679199,0.11285735666751862,-0.9257662892341614
1682880509871252500,6.82925244140625,-2.4741568565368652,0.5780312418937683,-1.033125877380371
1682880509888127200,6.846127197265625,-2.5442538261413574,1.5748106241226196,-1.4474451541900635
1682880509904999700,6.862999755859375,-2.433839797973633,2.5787675380706787,-1.8162550926208496
1682880509921864000,6.879864013671875,-2.1879665851593018,3.2423200607299805,-2.0444133281707764
1682880509938747100,6.8967470703125,-1.9277379512786865,3.8484511375427246,-2.4190263748168945
1682880509955606800,6.913606689453125,-1.545030951499939,4.299574851989746,-2.8828258514404297
1682880509972493800,6.930493896484375,-0.5546656250953674,2.7369816303253174,-1.9517145156860352
1682880509989368000,6.9473681640625,0.7299839854240417,-0.05421429127454758,0.5232060551643372
1682880510006241000,6.964240966796875,1.5700763463974,-0.7079927921295166,1.9544633626937866
1682880510023115000,6.981114990234375,2.027156352996826,-0.9346238374710083,1.7299703359603882
1682880510039987700,6.99798779296875,2.1032090187072754,-1.2122620344161987,0.47418415546417236
1682880510056862200,7.0148623046875,1.6733126640319824,-1.1617130041122437,-0.697149932384491
1682880510073735000,7.03173486328125,1.2087496519088745,-0.8211556077003479,-1.2539535760879517
1682880510090609200,7.048609130859375,0.9645562171936035,-0.12018773704767227,-0.8246681094169617
1682880510107481900,7.06548193359375,0.3602577745914459,1.245248794555664,0.29245173931121826
1682880510124355800,7.08235595703125,-0.28008171916007996,1.6090190410614014,0.6846272349357605
1682880510141225700,7.099225830078125,0.09834930300712585,1.325730323791504,0.671493649482727
1682880510158105300,7.116105224609375,0.5117523670196533,1.4978415966033936,0.1742493063211441
1682880510174976000,7.13297607421875,-0.009162978269159794,-0.008857546374201775,-0.977689802646637
1682880510191851800,7.149851806640625,-1.0841331481933594,-0.19975294172763824,-0.508698046207428
1682880510208721700,7.1667216796875,-1.7573065757751465,0.4943426847457886,0.41523563861846924
1682880510225597000,7.183596923828125,-1.8945986032485962,1.0361801385879517,1.0212140083312988
1682880510242470000,7.200469970703125,-1.7933475971221924,1.5236506462097168,1.3454307317733765
1682880510259344000,7.21734375,-1.5341880321502686,1.7765488624572754,1.5361733436584473
1682880510276206600,7.23420654296875,-1.0390818119049072,1.574657917022705,1.6728544235229492
1682880510293091300,7.25109130859375,-0.27290403842926025,1.0917688608169556,1.6743816137313843
1682880510309964300,7.26796435546875,0.4834998548030853,1.245248794555664,1.2457069158554077
1682880510326838300,7.28483837890625,0.988990843296051,1.9726365804672241,0.6076582074165344
1682880510343711200,7.301711181640625,1.1945469379425049,2.693610191345215,0.03848451003432274
1682880510360585500,7.31858544921875,1.225395679473877,3.2812626361846924,-0.4512766897678375
1682880510377458200,7.335458251953125,1.1725558042526245,3.6868772506713867,-0.8663596510887146
1682880510394332000,7.352331787109375,1.044274091720581,3.6870298385620117,-1.1073459386825562
1682880510411205000,7.369205078125,0.8086328506469727,3.1841351985931396,-1.1945469379425049
1682880510428079400,7.386079345703125,0.5496259927749634,2.4553728103637695,-1.2177598476409912
1682880510444952300,7.402952392578125,0.4259257912635803,2.0091357231140137,-1.2932016849517822
1682880510461826300,7.419826416015625,0.4265366494655609,1.5737415552139282,-1.5096007585525513
1682880510478689800,7.436689697265625,0.49235737323760986,0.970054030418396,-1.8823812007904053
1682880510495572500,7.453572509765625,0.513126790523529,0.14828753471374512,-2.37626576423645
1682880510512446500,7.470446533203125,0.49266281723976135,-0.7426594495773315,-2.8180739879608154
1682880510529320200,7.4873203125,0.5418374538421631,-1.4537066221237183,-2.948188304901123
1682880510546190600,7.504190673828125,0.6363688707351685,-1.9336938858032227,-2.702467918395996
1682880510563070000,7.521070068359375,0.7113525867462158,-2.3886358737945557,-2.289675712585449
1682880510579940000,7.537940185546875,0.7654141783714294,-2.8942794799804688,-1.8692476749420166
1682880510596814300,7.554814453125,0.9479101300239563,-3.053562641143799,-1.2988522052764893
1682880510613687000,7.57168701171875,1.2136365175247192,-2.601675033569336,-0.45784351229667664
1682880510630557400,7.588557373046875,1.5774067640304565,-1.32863187789917,-0.37491855025291443
1682880510647434200,7.605434326171875,1.482264518737793,0.14217889308929443,0.19226983189582825
1682880510664308500,7.62230859375,0.9535606503486633,1.0566442012786865,1.5514450073242188
1682880510681181200,7.63918115234375,0.574976921081543,0.6594290137290955,1.751503348350525
1682880510698055400,7.656055419921875,0.06200282275676727,-1.4524848461151123,1.0870347023010254
1682880510714928000,7.67292822265625,-0.8439103364944458,-2.671924591064453,2.0259346961975098
1682880510731799300,7.68979931640625,-1.94713294506073,-2.104278087615967,3.2223141193389893
1682880510748672800,7.7066728515625,-2.7705793380737305,-2.0914499759674072,3.0550897121429443
1682880510765549300,7.72354931640625,-3.4660494327545166,-2.2186625003814697,2.230879783630371
1682880510782422500,7.740422607421875,-4.09447717666626,-1.8574885129928589,1.9523253440856934
1682880510799296300,7.757296142578125,-4.3284382820129395,-1.4324790239334106,2.0535762310028076
1682880510816169500,7.77416943359375,-3.97780179977417,-1.095739483833313,1.8110626935958862
1682880510833043200,7.791043212890625,-2.886796474456787,-0.7819074988365173,1.015868902206421
1682880510849916200,7.807916259765625,-1.7373007535934448,-0.5551238059997559,0.17272214591503143
1682880510866790100,7.8247900390625,-1.2739595174789429,-0.5626068711280823,-0.3245221674442291
1682880510883663400,7.841663330078125,-1.1244502067565918,-0.39095374941825867,-0.6513350605964661
1682880510900537300,7.858537353515625,-1.0273226499557495,0.2249511331319809,-1.0500773191452026
1682880510917410600,7.87541064453125,-0.8504771590232849,0.9431759119033813,-1.3400856256484985
1682880510934284300,7.8922841796875,-0.6569855809211731,1.3936890363693237,-1.669647455215454
1682880510951157000,7.909156982421875,-0.4717406928539276,1.508989930152893,-1.9375118017196655
1682880510968031000,7.926031005859375,-0.29794952273368835,1.452942967414856,-1.9573649168014526
1682880510984916000,7.942916015625,-0.23900102078914642,1.2873984575271606,-1.6281086206436157
1682880511001778700,7.95977880859375,-0.36942076683044434,1.1936306953430176,-1.0862711668014526
1682880511018651400,7.9766513671875,-0.485027015209198,1.1385000944137573,-0.7154759168624878
1682880511035533300,7.993533203125,-0.308792382478714,0.9069821834564209,-0.607200026512146
1682880511052392000,8.010391845703126,0.3153591752052307,0.7577783465385437,-0.8234463334083557
1682880511069272300,8.027272216796876,1.0418306589126587,1.0926852226257324,-1.389107584953308
1682880511086145300,8.044145263671876,1.6045902967453003,0.9761626720428467,-1.9701931476593018
1682880511103008800,8.0610087890625,2.121382236480713,-0.4567744731903076,-1.6316211223602295
1682880511119892500,8.077892578125,2.4972171783447266,-1.8327484130859375,-0.21868975460529327
1682880511136766500,8.094766357421875,2.5327999591827393,-2.6398541927337646,0.5694791078567505
1682880511153627000,8.111626953125,2.182621479034424,-1.587027907371521,-0.16768251359462738
1682880511170513200,8.12851318359375,1.514487624168396,0.3364340364933014,-0.8542950749397278
1682880511187386000,8.14538623046875,0.9214902520179749,0.5844452977180481,-0.7611380815505981
1682880511204249900,8.162249755859374,0.5190827250480652,-0.23396138846874237,-0.06322455406188965
1682880511221133300,8.17913330078125,-0.7414376735687256,-0.10170906037092209,0.6717990636825562
1682880511238007300,8.19600732421875,-2.2547035217285156,0.5300782918930054,1.4917329549789429
1682880511254880300,8.21288037109375,-2.3861923217773438,0.294437050819397,1.8121317625045776
1682880511271751700,8.229751708984375,-1.285413146018982,0.8949176073074341,1.8402315378189087
1682880511288629800,8.246629638671875,-0.19975294172763824,1.0051788091659546,1.9100228548049927
1682880511305491000,8.263490966796875,0.08078692853450775,0.3735440969467163,1.5732834339141846
1682880511322371300,8.280371337890625,-0.10323622822761536,0.07162395119667053,1.29381263256073
1682880511339251500,8.29725146484375,-0.3081815242767334,0.1290452778339386,1.0571023225784302
1682880511356121300,8.314121337890626,-0.45524731278419495,0.44180828332901,0.7544185519218445
1682880511372995600,8.33099560546875,-0.5157229900360107,0.7906123399734497,0.43737950921058655
1682880511389865700,8.34786572265625,-0.4427245855331421,0.998153805732727,0.1511891484260559
1682880511406745000,8.3647451171875,-0.08567385375499725,0.7612907886505127,-0.052228979766368866
1682880511423615000,8.381614990234375,0.3436116874217987,0.2926044464111328,-0.24297164380550385
1682880511440489200,8.3984892578125,0.598647952079773,-0.09025534242391586,-0.4407392740249634
1682880511457362200,8.415362060546874,0.6736316680908203,-0.3741549551486969,-0.6400340795516968
1682880511474236400,8.432236328125,0.6754642724990845,-0.5302310585975647,-0.8054258227348328
1682880511491109400,8.449109375,0.6737843751907349,-0.6556110978126526,-0.8799513578414917
1682880511507983000,8.465983154296875,0.7254024744033813,-0.79840087890625,-0.8155050873756409
1682880511524856000,8.48285595703125,0.8538368940353394,-0.8037459254264832,-0.6485861539840698
1682880511541730000,8.49972998046875,1.0590876340866089,-0.6082690954208374,-0.5193881988525391
1682880511558603000,8.51660302734375,1.294118046760559,-0.32330042123794556,-0.512210488319397
1682880511575472000,8.53347216796875,1.47844660282135,-0.06185010448098183,-0.6210972666740417
1682880511592337400,8.55033740234375,1.54945969581604,0.16294831037521362,-0.7851145267486572
1682880511609217300,8.56721728515625,1.5128077268600464,0.3568980097770691,-0.979827880859375
1682880511626099700,8.584099609375,1.410946011543274,0.5218316316604614,-1.1901181936264038
1682880511642971400,8.600971435546874,1.3110694885253906,0.6531676650047302,-1.3602441549301147
1682880511659841500,8.617841552734374,1.2915217876434326,0.6858489513397217,-1.4280502796173096
1682880511676720600,8.634720703125,1.3070988655090332,0.6197227835655212,-1.3920091390609741
1682880511693591600,8.651591552734375,1.2570079565048218,0.5057964324951172,-1.2728904485702515
1682880511710465300,8.66846533203125,1.069472312927246,0.4537201523780823,-1.0795515775680542
1682880511727338200,8.685338134765624,0.7925976514816284,0.4407392740249634,-0.8437576293945312
1682880511744209700,8.702209716796874,0.6279694437980652,0.03985895588994026,-0.7867944240570068
1682880511761088000,8.719087890625,0.5056437253952026,-1.042594313621521,-1.0571023225784302
1682880511777956600,8.73595654296875,0.21135938167572021,-1.9017761945724487,-1.187522053718567
1682880511794834700,8.752834716796874,-0.043676864355802536,-2.1349740028381348,-0.9547823667526245
1682880511811704300,8.769704345703126,-0.12370020896196365,-2.34175181388855,-0.6792821288108826
1682880511828581600,8.78658154296875,-0.27458393573760986,-2.9217684268951416,-0.6666067242622375
1682880511845439200,8.803439208984376,-0.41722095012664795,-3.850131034851074,-0.9201157689094543
1682880511862315300,8.820315185546875,-0.48915034532546997,-5.0263519287109375,-1.3315335512161255
1682880511879200300,8.8372001953125,-0.5496259927749634,-6.858184337615967,-1.7475327253341675
1682880511896074800,8.85407470703125,-0.7336491346359253,-7.188204288482666,-1.4798210859298706
1682880511912947200,8.870947265625,-1.6116151809692383,-2.351067543029785,0.15347988903522491
1682880511929820200,8.887820068359375,-2.875800848007202,1.0018190145492554,1.7722728252410889
1682880511946694100,8.904694091796875,-3.6777141094207764,1.0769554376602173,2.813645362854004
1682880511963567000,8.921567138671875,-4.05049467086792,0.06933320313692093,3.1308372020721436
1682880511980441300,8.93844140625,-3.5856263637542725,-0.6123924255371094,2.721251964569092
1682880511997314300,8.955314208984374,-2.7279715538024902,-1.1974486112594604,2.049300193786621
1682880512014185500,8.972185546875,-2.010510206222534,-1.3640620708465576,1.4694362878799438
1682880512031063600,8.9890634765625,-1.507157325744629,-1.1804970502853394,1.0338894128799438
1682880512047935200,9.005935302734375,-1.1832460165023804,-0.7234171628952026,0.4928155243396759
1682880512064808200,9.02280810546875,-0.9330966472625732,0.3833179473876953,-0.031001411378383636
1682880512081685500,9.039685546875,-0.7628179788589478,1.338405728340149,-0.4092797040939331
1682880512098552000,9.056552001953126,-0.6731734871864319,1.6326900720596313,-0.7124215960502625
1682880512115429400,9.073429443359375,-0.5073235630989075,1.5149458646774292,-0.9236282706260681
1682880512132302000,9.090302001953125,-0.32940909266471863,1.1331549882888794,-0.9298896193504333
1682880512149175800,9.10717578125,-0.2396118938922882,0.7512115240097046,-0.7828238010406494
1682880512166049300,9.12404931640625,-0.15057829022407532,0.6348416805267334,-0.6446155309677124
1682880512182923300,9.14092333984375,0.06185010448098183,0.9640980958938599,-0.6424775123596191
1682880512199796200,9.157796142578125,0.3597996234893799,1.5700763463974,-0.6496551632881165
1682880512216668000,9.17466796875,0.7365507483482361,1.9973766803741455,-0.6262896060943604
1682880512233543200,9.191543212890625,1.0531316995620728,2.138028383255005,-0.7037167549133301
1682880512250417000,9.2084169921875,1.2573133707046509,1.9097174406051636,-0.8055785298347473
1682880512267289900,9.225289794921874,1.4289665222167969,0.6194173693656921,-0.470671683549881
1682880512284153600,9.242153564453124,1.5247195959091187,-0.6698137521743774,0.6316346526145935
1682880512301037300,9.259037353515625,1.5377005338668823,0.2912299931049347,1.415374755859375
1682880512317911000,9.2759111328125,0.9954048991203308,1.6798794269561768,1.1229230165481567
1682880512334773500,9.2927734375,0.10231992602348328,1.2822061777114868,0.6285803318023682
1682880512351655700,9.30965576171875,-0.5419901609420776,-0.31322115659713745,0.37950003147125244
1682880512368533500,9.326533447265625,-0.9671524167060852,-0.9140071272850037,0.26481008529663086
1682880512385391600,9.3433916015625,-1.2504411935806274,-0.3959933817386627,0.23854288458824158
1682880512402278100,9.360278076171875,-1.501812219619751,0.5534439086914062,0.20387627184391022
1682880512419152100,9.377152099609376,-1.3662000894546509,1.0436632633209229,-0.5224425196647644
1682880512436014600,9.3940146484375,0.05207626149058342,0.005039638374000788,-0.3643811047077179
1682880512452899000,9.410899169921874,1.3625348806381226,0.3367394804954529,0.8257371187210083
1682880512469772300,9.427772216796875,1.2912163734436035,0.9668469429016113,0.7765624523162842
1682880512486649600,9.444649658203126,0.6594290137290955,1.0085384845733643,-0.048716504126787186
1682880512503519000,9.46151904296875,-0.07192938029766083,1.2334896326065063,0.20830504596233368
1682880512520393200,9.478393310546876,-0.3686571717262268,1.412778615951538,0.8625417351722717
1682880512537266000,9.495265869140624,-0.3767511546611786,1.4752395153045654,1.3350459337234497
1682880512554129400,9.51212939453125,-0.2330450862646103,1.4167492389678955,1.5939000844955444
1682880512571013000,9.52901318359375,-0.02076941914856434,1.3267992734909058,1.507768154144287
1682880512587886800,9.545886962890625,0.24694228172302246,1.3547463417053223,1.1450668573379517
1682880512604759800,9.562759765625,0.46150869131088257,1.539380431175232,0.7225008606910706
1682880512621631200,9.57963134765625,0.53328537940979,1.781130313873291,0.275958389043808
1682880512638509300,9.59650927734375,0.5308418869972229,2.1485657691955566,-0.16065755486488342
1682880512655380700,9.613380615234375,0.5036584138870239,2.609616279602051,-0.5442809462547302
1682880512672254200,9.630254150390625,0.4554000496864319,2.9501736164093018,-0.8338310718536377
1682880512689128000,9.6471279296875,0.3597996234893799,2.838690757751465,-1.0322095155715942
1682880512705998300,9.663998291015625,0.27000242471694946,2.162921190261841,-1.1609493494033813
1682880512722877400,9.68087744140625,0.18035796284675598,1.3420709371566772,-1.226617455482483
1682880512739747600,9.69774755859375,0.10445795953273773,0.7008151412010193,-1.221577763557434
1682880512756622000,9.7146220703125,0.10537425428628922,0.25854870676994324,-1.142012596130371
1682880512773495000,9.7314951171875,0.15256360173225403,0.038026362657547,-1.0632109642028809
1682880512790368800,9.74836865234375,0.18539759516716003,-0.03985895588994026,-1.037249207496643
1682880512807231200,9.765231201171876,0.25366178154945374,0.006719517521560192,-1.062294602394104
1682880512824116200,9.7821162109375,0.34574973583221436,0.13805554807186127,-1.146135926246643
1682880512840988700,9.79898876953125,0.3904955983161926,0.2779437005519867,-1.2646437883377075
1682880512857862700,9.815862548828125,0.3813326358795166,0.35873061418533325,-1.3632985353469849
1682880512874736000,9.832736083984376,0.34666603803634644,0.3871358633041382,-1.3849842548370361
1682880512891607000,9.84960693359375,0.256868839263916,0.34208452701568604,-1.3226759433746338
1682880512908494800,9.866494873046875,0.1699732542037964,0.20036379992961884,-1.154077172279358
1682880512925357000,9.883357177734375,0.16814066469669342,-0.0377209298312664,-0.8597928285598755
1682880512942227200,9.900227294921875,0.33368512988090515,-0.32528573274612427,-0.47540587186813354
1682880512959106000,9.91710595703125,0.5809328556060791,-0.6382014751434326,-0.12522737681865692
1682880512975966200,9.93396630859375,0.7351763248443604,-0.9279043078422546,0.09758572280406952
1682880512992851000,9.950850830078124,0.8671231865882874,-1.1707231998443604,0.299476683139801
1682880513009720800,9.967720947265626,1.0627528429031372,-1.1859948635101318,0.6496551632881165
1682880513026600200,9.98460009765625,1.391703724861145,-0.9963212013244629,0.313373863697052
1682880513043470000,10.001469970703125,1.6565138101577759,-1.1163562536239624,-0.8454375267028809
1682880513060345600,10.018345703125,1.342987298965454,-3.556304693222046,-0.28008171916007996
1682880513077217500,10.035217529296874,0.09315694868564606,-4.24627685546875,2.7867672443389893
1682880513094091800,10.052091796875,-1.4306464195251465,-2.4042129516601562,4.28079080581665
1682880513110964700,10.06896484375,-2.1766655445098877,-0.9036223888397217,3.1395418643951416
1682880513127838700,10.085838623046875,-2.852893352508545,-0.34025195240974426,2.3130412101745605
1682880513144712000,10.1027119140625,-3.405573844909668,-0.04352414980530739,2.651766061782837
1682880513161583400,10.119583251953125,-3.4578027725219727,-0.0065668015740811825,3.0978503227233887
1682880513178461200,10.136461181640625,-3.033862352371216,-0.2941316068172455,3.019965171813965
1682880513195332600,10.15333251953125,-2.085646629333496,-0.8614727258682251,2.0838141441345215
1682880513212205300,10.170205322265625,-0.9970847964286804,-1.120937705039978,0.8014551997184753
1682880513229079600,10.18707958984375,-0.7686212062835693,-0.48227810859680176,-0.23686300218105316
1682880513245942500,10.203942626953125,-1.023352026939392,0.964403510093689,-1.0462594032287598
1682880513262826800,10.22082666015625,-1.0386236906051636,2.241875410079956,-1.2528846263885498
1682880513279699700,10.23769970703125,-0.9952521920204163,2.5495989322662354,-0.959669291973114
1682880513296573700,10.25457373046875,-0.9607383012771606,2.2293527126312256,-0.8110763430595398
1682880513313446400,10.2714462890625,-0.7195992469787598,1.2533427476882935,-1.6798794269561768
1682880513330320400,10.2883203125,-0.6348416805267334,0.6265950202941895,-2.3997840881347656
1682880513347182800,10.305182861328126,-0.8093964457511902,0.9158397316932678,-2.420248031616211
1682880513364067600,10.322067626953125,-1.0644327402114868,1.6218472719192505,-2.2240076065063477
1682880513380940500,10.3389404296875,-1.1601858139038086,2.0508272647857666,-2.065182685852051
1682880513397814500,10.355814453125,-0.911410927772522,1.8307631015777588,-1.901318073272705
1682880513414687500,10.3726875,-0.2509129047393799,1.183398723602295,-1.5628987550735474
1682880513431558700,10.38955859375,0.7382306456565857,0.7026477456092834,-0.8274169564247131
1682880513448426500,10.406426513671875,1.6239852905273438,0.3484986126422882,0.2715296149253845
1682880513465308700,10.42330859375,2.348165988922119,0.09865473955869675,1.2762502431869507
1682880513482181600,10.440181640625,2.8735101222991943,0.20845776796340942,1.5569428205490112
1682880513499055400,10.457055419921875,2.72491717338562,0.959669291973114,0.8240572214126587
1682880513515917800,10.473917724609375,1.7736471891403198,1.0841331481933594,-0.018478672951459885
1682880513532802300,10.49080224609375,0.9060658812522888,0.26282477378845215,-0.41859540343284607
1682880513549675300,10.50767529296875,0.6363688707351685,-0.47601673007011414,-0.2958115041255951
1682880513566538800,10.524538818359375,-0.20341812074184418,-0.007635815534740686,0.07941248267889023
1682880513583422700,10.541422607421875,-1.9532415866851807,0.8455902338027954,0.4043927788734436
1682880513600296200,10.558296142578126,-2.2786800861358643,0.8095491528511047,0.5969680547714233
1682880513617160700,10.57516064453125,-1.381929874420166,0.9825767278671265,0.9485210180282593
1682880513634043400,10.59204345703125,-0.6327036619186401,1.0877982378005981,0.7292203903198242
1682880513650916000,10.608916015625,-0.749531626701355,0.8234463334083557,0.126143679022789
1682880513667780000,10.625780029296875,-1.2953397035598755,0.8914051055908203,0.27641651034355164
1682880513684663300,10.642663330078125,-1.4477506875991821,1.0068585872650146,0.7096726894378662
1682880513701534500,10.659534423828125,-1.3817771673202515,1.1432342529296875,0.9627236127853394
1682880513718412800,10.676412841796875,-1.2177598476409912,1.4167492389678955,1.0632109642028809
1682880513735281700,10.69328173828125,-0.9471465349197388,1.647045373916626,1.126282811164856
1682880513752160000,10.710159912109376,-0.4810563921928406,1.326341152191162,1.2189816236495972
1682880513769031000,10.727031005859375,0.16401731967926025,0.8689557909965515,1.1189523935317993
1682880513785911300,10.743911376953125,0.7133378982543945,1.0404561758041382,0.6927211880683899
1682880513802767600,10.760767578125,0.9353874325752258,1.4792101383209229,0.16523905098438263
1682880513819651000,10.777651123046875,0.9285151958465576,1.9871445894241333,-0.2889392673969269
1682880513836525300,10.794525390625,0.9085093140602112,2.4135286808013916,-0.6000223755836487
1682880513853398300,10.811398193359375,0.9190467596054077,2.6009113788604736,-0.7499898076057434
1682880513870272000,10.82827197265625,0.7991644740104675,2.4080307483673096,-0.7858781218528748
1682880513887145000,10.84514501953125,0.6333145499229431,1.9100228548049927,-0.8234463334083557
1682880513904019000,10.86201904296875,0.584139883518219,1.5158621072769165,-0.9208793640136719
1682880513920892000,10.878891845703125,0.6094908118247986,1.2953397035598755,-1.0797042846679688
1682880513937755400,10.89575537109375,0.6262896060943604,1.0755809545516968,-1.268919825553894
1682880513954639400,10.912639404296876,0.6322455406188965,0.7900014519691467,-1.4508049488067627
1682880513971511800,10.92951171875,0.6727153658866882,0.5001459121704102,-1.597107172012329
1682880513988386800,10.94638671875,0.7005097270011902,0.21044307947158813,-1.7026340961456299
1682880514005259800,10.963259765625,0.6682865619659424,-0.08460483700037003,-1.7566957473754883
1682880514022132700,10.9801328125,0.5804746747016907,-0.4103487432003021,-1.766927719116211
1682880514039006700,10.9970068359375,0.5025894045829773,-0.7744244337081909,-1.7377588748931885
1682880514055869200,11.013869140625,0.5254968404769897,-1.1217013597488403,-1.5939000844955444
1682880514072753700,11.030753662109374,0.6495024561882019,-1.3687963485717773,-1.2602150440216064
1682880514089624300,11.047624267578126,0.788627028465271,-1.4752395153045654,-0.7707592248916626
1682880514106503400,11.06450341796875,0.8625417351722717,-1.4911220073699951,-0.31352660059928894
1682880514123373600,11.08137353515625,0.8651378750801086,-1.463938593864441,-0.06582073122262955
1682880514140247600,11.09824755859375,0.8437576293945312,-1.3461942672729492,0.05207626149058342
1682880514157121000,11.11512109375,0.8216137290000916,-1.0221302509307861,0.3352122902870178
1682880514173994800,11.131994873046875,0.7480044960975647,-0.5769622325897217,0.6061310172080994
1682880514190856400,11.1488564453125,0.6716463565826416,0.019547687843441963,0.08888089656829834
1682880514207742500,11.165742431640625,0.6727153658866882,0.2496911734342575,-0.8871290683746338
1682880514224614700,11.18261474609375,0.483957976102829,-2.183537721633911,-0.7336491346359253
1682880514241485800,11.19948583984375,-0.3349068760871887,-3.6639697551727295,2.0062341690063477
1682880514258364200,11.2163642578125,-1.7701348066329956,-2.4181101322174072,3.8033998012542725
1682880514275236000,11.233236083984375,-2.917645215988159,-1.6928603649139404,3.1696269512176514
1682880514292106200,11.250106201171874,-3.4489452838897705,-1.2738068103790283,2.045787811279297
1682880514308984600,11.266984619140626,-3.662137031555176,-1.0216721296310425,1.9391916990280151
1682880514325845000,11.283844970703125,-3.5749361515045166,-0.8709411025047302,2.1317670345306396
1682880514342729700,11.300729736328124,-3.112358331680298,-0.8400924205780029,1.965458869934082
1682880514359602400,11.3176025390625,-2.178040027618408,-0.8704829812049866,1.0980303287506104
1682880514376476400,11.334476318359375,-1.3523029088974,-0.9335548281669617,-0.03741549700498581
1682880514393349400,11.351349365234375,-1.1352930068969727,-0.7179193496704102,-0.79840087890625
1682880514410223600,11.3682236328125,-1.183704137802124,-0.32650747895240784,-1.347110629081726
1682880514427096300,11.385096435546876,-1.0726794004440308,0.18509216606616974,-1.7412713766098022
1682880514443968000,11.401968017578126,-0.7486153841018677,0.7154759168624878,-2.0537290573120117
1682880514460846000,11.41884619140625,-0.3594942092895508,1.0952813625335693,-2.2941043376922607
1682880514477717200,11.43571728515625,-0.07620543986558914,1.2189816236495972,-2.2904391288757324
1682880514494590200,11.452590087890625,-0.012217304669320583,1.1020009517669678,-1.7910568714141846
1682880514511460000,11.469460205078125,-0.11438451707363129,0.9976956844329834,-0.8326093554496765
1682880514528341800,11.486341796875,-0.18081611394882202,0.9143125414848328,0.12507465481758118
1682880514545211400,11.50321142578125,-0.038637228310108185,0.8254316449165344,0.5991060733795166
1682880514562086100,11.520086181640625,0.2724458873271942,0.9908234477043152,0.5761986374855042
1682880514578956300,11.536956298828125,0.6075055003166199,1.543503761291504,0.06673702597618103
1682880514595820500,11.553820556640625,0.7541131377220154,1.9037615060806274,-0.5803219676017761
1682880514612705000,11.570705078125,0.7959573864936829,1.5236506462097168,-1.0936014652252197
1682880514629567200,11.587567138671876,0.846659243106842,0.3901901841163635,-1.3771957159042358
1682880514646452200,11.6044521484375,0.8132143616676331,-0.793361246585846,-1.3269519805908203
1682880514663325400,11.621325439453125,0.7037167549133301,-1.2261592149734497,-1.0250319242477417
1682880514680199200,11.63819921875,0.5103778839111328,-0.5070181488990784,-0.5780312418937683
1682880514697072000,11.655072021484376,0.3081815242767334,0.5957463383674622,-0.11148291081190109
1682880514713945900,11.67194580078125,0.14095716178417206,0.8136724829673767,0.2538145184516907
1682880514730818600,11.688818603515625,-0.09697485715150833,0.5068654417991638,0.48685958981513977
1682880514747684900,11.705684814453125,-0.3599523603916168,0.07070764899253845,0.5981897711753845
1682880514764566300,11.722566162109375,-0.45494189858436584,-0.15073099732398987,0.6898195743560791
1682880514781440000,11.73943994140625,-0.6322455406188965,-0.010079276748001575,0.7980954647064209
1682880514798300000,11.7562998046875,-0.9005680680274963,0.4712825417518616,0.6047565937042236
1682880514815180000,11.773179931640625,-0.6508769392967224,0.7031059265136719,-0.05513058975338936
1682880514832047600,11.790047607421876,0.35323283076286316,-0.1843285858631134,0.039248090237379074
1682880514848917200,11.806917236328125,0.8495608568191528,-0.6195700764656067,0.9137017130851746
1682880514865796000,11.823796142578125,0.7086036801338196,-0.16920967400074005,0.9847147464752197
1682880514882669000,11.8406689453125,0.5630650520324707,-0.4179845452308655,0.36361753940582275
1682880514899553500,11.857553466796874,0.22602014243602753,-0.5911648273468018,0.18280142545700073
1682880514916427800,11.874427734375,-0.1339322030544281,-0.5545129179954529,0.23350323736667633
1682880514933300700,11.89130078125,-0.39797869324684143,-0.3323107063770294,0.3248275816440582
1682880514950174500,11.908174560546875,-0.5360342264175415,-0.13698652386665344,0.4882340431213379
1682880514967037000,11.925036865234375,-0.3952298164367676,-0.19807305932044983,0.5911648273468018
1682880514983921400,11.94192138671875,0.1690569519996643,-0.44318273663520813,0.38408151268959045
1682880515000794400,11.95879443359375,0.8423831462860107,-0.5407684445381165,-0.001679879380390048
1682880515017668600,11.975668701171875,1.2759448289871216,-0.5580254197120667,-0.3828597962856293
1682880515034541600,11.99254150390625,1.3813190460205078,-0.5148066878318787,-0.6299547553062439
1682880515051412000,12.009411865234375,1.3548991680145264,-0.29993483424186707,-0.6143777370452881
1682880515068291600,12.02629150390625,1.367727279663086,0.020311269909143448,-0.32650747895240784
1682880515085162200,12.043162353515624,1.4943290948867798,0.33948835730552673,0.16859880089759827
1682880515102035200,12.06003515625,1.6462818384170532,0.6594290137290955,0.6495024561882019
1682880515118910500,12.076910400390625,1.6855299472808838,0.9737191796302795,0.9011789560317993
1682880515135770600,12.0937705078125,1.6059647798538208,1.3132075071334839,0.9013316631317139
1682880515152656400,12.110656494140626,1.4672982692718506,1.6945401430130005,0.6966918110847473
1682880515169529300,12.127529296875,1.289994716644287,2.001499891281128,0.33337971568107605
1682880515186403300,12.1444033203125,0.879493236541748,2.0641136169433594,-0.22861631214618683
1682880515203276000,12.161276123046875,0.4150829315185547,2.0864102840423584,-0.8002334833145142
1682880515220150300,12.178150390625,0.15347988903522491,1.9889771938323975,-1.231046199798584
1682880515237023200,12.195023193359376,0.022602014243602753,1.6705636978149414,-1.4886785745620728
1682880515253897000,12.21189697265625,-0.040622539818286896,1.1362093687057495,-1.6067283153533936
1682880515270770200,12.228770263671874,-0.07864890247583389,0.49785518646240234,-1.5702290534973145
1682880515287644000,12.245643798828125,-0.14676037430763245,-0.12980885803699493,-1.3836097717285156
1682880515304516900,12.262516845703125,-0.20845776796340942,-0.6269004344940186,-1.0746647119522095
1682880515321380900,12.279380859375,-0.260992169380188,-1.0335839986801147,-0.7231117486953735
1682880515338263600,12.296263671875,-0.25854870676994324,-1.338711142539978,-0.4031710624694824
1682880515355137800,12.3131376953125,-0.20906862616539001,-1.4993687868118286,-0.15027284622192383
1682880515372009700,12.330009765625,-0.15622878074645996,-1.510364294052124,0.015118914656341076
1682880515388886000,12.346885986328125,-0.13958270847797394,-1.436144232749939,0.07712173461914062
1682880515405747200,12.363747314453125,-0.12629638612270355,-1.4051427841186523,0.048258353024721146
1682880515422628900,12.38062890625,-0.06643159687519073,-1.561829686164856,-0.08307767659425735
1682880515439507200,12.397507080078125,0.044287730008363724,-1.7951802015304565,-0.26969701051712036
1682880515456379000,12.41437890625,0.09269879758358002,-1.8771889209747314,-0.3972151279449463
1682880515473249000,12.4312490234375,0.008399397134780884,-1.2315043210983276,-0.24434609711170197
1682880515490128400,12.44812841796875,-0.05757404863834381,-0.07360926270484924,0.024129176512360573
1682880515506998500,12.46499853515625,-0.022602014243602753,1.0338894128799438,-0.06108652427792549
1682880515523872800,12.481872802734374,-0.02367102913558483,0.4528038501739502,-2.2145392894744873
1682880515540745200,12.4987451171875,-0.06490442901849747,-1.46424400806427,-3.3790011405944824
1682880515557619200,12.515619140625,-0.46150869131088257,-6.742578029632568,-0.9141598343849182
1682880515574474200,12.53247412109375,-1.929112434387207,-5.740911483764648,2.5298984050750732
1682880515591366700,12.54936669921875,-3.2456798553466797,-2.0138700008392334,2.9123001098632812
1682880515608239400,12.5662392578125,-3.355788230895996,0.17547103762626648,2.286163091659546
1682880515625113600,12.583113525390624,-3.020728588104248,0.7538077235221863,2.0673208236694336
1682880515641986600,12.599986572265625,-2.506838321685791,0.33857205510139465,1.8810068368911743
1682880515658860000,12.616860107421875,-1.898416519165039,-0.5992587804794312,1.557706356048584
1682880515675722500,12.633722412109375,-1.358258843421936,-1.4868459701538086,1.062447428703308
1682880515692607200,12.650607177734376,-0.9492846131324768,-1.538464069366455,0.31444287300109863
1682880515709480200,12.667480224609376,-0.7304421067237854,-0.5126686692237854,-0.6458373069763184
1682880515726354200,12.684354248046875,-0.6995934247970581,0.21380282938480377,-1.391703724861145
1682880515743227600,12.7012275390625,-0.5998696684837341,0.025503624230623245,-1.8096883296966553
1682880515760101000,12.71810107421875,-0.5149593949317932,-0.8655960559844971,-1.6847662925720215
1682880515776974000,12.73497412109375,-0.5955936312675476,-1.2052371501922607,-0.8550586104393005
1682880515793847800,12.751847900390626,-0.7651087045669556,-0.7776314616203308,0.005345070734620094
1682880515810721000,12.768720947265624,-0.6959282159805298,-0.02626720629632473,0.35934147238731384
1682880515827594800,12.7855947265625,-0.3604104816913605,0.5844452977180481,0.27550023794174194
1682880515844468000,12.802468017578125,0.038026362657547,0.9236282706260681,0.04260785132646561
1682880515861342200,12.81934228515625,0.29397889971733093,0.9894489645957947,-0.15500704944133759
1682880515878214700,12.836214599609375,0.4625777006149292,0.9665415287017822,-0.3159700334072113
1682880515895088600,12.853088623046874,0.5769622325897217,0.9512699246406555,-0.5067127346992493
1682880515911961600,12.869961669921874,0.7864890098571777,1.0323622226715088,-0.7203628420829773
1682880515928835600,12.886835693359375,1.0826059579849243,1.1905763149261475,-0.9821186065673828
1682880515945710600,12.903710693359375,1.2487612962722778,1.131933331489563,-1.2565498352050781
1682880515962582800,12.920582763671876,1.2684617042541504,0.528245747089386,-1.2738068103790283
1682880515979445800,12.93744580078125,1.2189816236495972,-0.5398521423339844,-0.6685920357704163
1682880515996329700,12.954329833984374,1.1572842597961426,-1.0444267988204956,0.17898350954055786
1682880516013202400,12.971202392578125,1.0700831413269043,-0.1290452778339386,0.5204572081565857
1682880516030076200,12.988076171875,0.631481945514679,0.6995934247970581,0.4489859640598297
1682880516046949400,13.004949462890625,0.03436116874217987,0.3562871515750885,0.42302417755126953
1682880516063823600,13.02182373046875,-0.451123982667923,-0.49235737323760986,0.4560109078884125
1682880516080697600,13.038697509765624,-0.9856310486793518,-0.699288010597229,0.656680166721344
1682880516097570600,13.055570556640625,-1.610698938369751,0.026419922709465027,0.9497427344322205
1682880516114443000,13.072443115234375,-1.6704109907150269,0.5514585971832275,0.9234755635261536
1682880516131316000,13.08931591796875,-0.9472993016242981,0.2649627923965454,0.44180828332901
1682880516148191700,13.106191650390626,0.39064833521842957,-0.34773504734039307,0.3917173445224762
1682880516165064200,13.123064208984376,1.0264062881469727,0.26710084080696106,0.6997461318969727
1682880516181937000,13.13993701171875,0.8813258409500122,0.7470881938934326,0.5774203538894653
1682880516198811100,13.15681103515625,0.8038986921310425,0.39614611864089966,-0.09437867999076843
1682880516215666400,13.17366650390625,0.5215262174606323,0.2929098904132843,-0.3404046595096588
1682880516232557800,13.190557861328125,0.1814269721508026,0.45662176609039307,-0.19593502581119537
1682880516249430500,13.207430419921875,-0.04856378585100174,0.6850853562355042,0.01771509274840355
1682880516266296300,13.22429638671875,-0.21151208877563477,0.8880453705787659,0.28435778617858887
1682880516283177700,13.241177734375,-0.23396138846874237,0.9098837971687317,0.41493022441864014
1682880516300052000,13.258052001953125,0.04703662544488907,0.6050620079040527,0.11301007121801376
1682880516316925000,13.274925048828125,0.2603813111782074,0.18112154304981232,-0.3572034537792206
1682880516333798700,13.291798583984376,0.23105977475643158,-0.11102475970983505,-0.6255260109901428
1682880516350671400,13.30867138671875,0.18845193088054657,-0.24755313992500305,-0.6580545902252197
1682880516367549200,13.325549072265625,0.2814561724662781,-0.0959058403968811,-0.5160284042358398
1682880516384418300,13.342418212890625,0.44318273663520813,0.1186605766415596,-0.2987131178379059
1682880516401290000,13.3592900390625,0.5520694851875305,0.2399173229932785,-0.10567969083786011
1682880516418168300,13.376168212890626,0.5655084848403931,0.29794952273368835,-0.01924225501716137
1682880516435039200,13.393039306640626,0.5233588218688965,0.3643811047077179,-0.049785517156124115
1682880516451912400,13.409912353515624,0.48945578932762146,0.41340306401252747,-0.13698652386665344
1682880516468786000,13.426785888671875,0.521984338760376,0.3597996234893799,-0.22937989234924316
1682880516485665800,13.443665771484374,0.6096435189247131,0.21731531620025635,-0.31352660059928894
1682880516502521300,13.460521240234375,0.7099781036376953,0.05406157299876213,-0.38438695669174194
1682880516519408400,13.477408447265624,0.7864890098571777,-0.05314527451992035,-0.4518875777721405
1682880516536280000,13.494280029296876,0.8385652899742126,-0.08964447677135468,-0.5015203952789307
1682880516553153300,13.5111533203125,0.85994553565979,-0.10445795953273773,-0.5532912015914917
1682880516570027300,13.52802734375,0.8385652899742126,-0.08994990587234497,-0.6420193910598755
1682880516586900000,13.54489990234375,0.8060367107391357,0.0003054326225537807,-0.7530441284179688
1682880516603773700,13.561773681640625,0.8083274364471436,0.13790282607078552,-0.8362745046615601
1682880516620653300,13.5786533203125,0.8749117255210876,0.25244006514549255,-0.864068865776062
1682880516637521000,13.59552099609375,0.9010262489318848,0.3248275816440582,-0.8342891931533813
1682880516654392300,13.612392333984374,0.8243626356124878,0.28787025809288025,-0.7941248416900635
1682880516671266800,13.629266845703125,0.7086036801338196,0.0981965884566307,-0.7779368758201599
1682880516688143400,13.646143310546876,0.612850546836853,-0.1992947906255722,-0.7487680912017822
1682880516705002200,13.663002197265625,0.5371032953262329,-0.48808133602142334,-0.651029646396637
1682880516721889800,13.679889892578124,0.4245513379573822,-0.7406741380691528,-0.5007568001747131
1682880516738761500,13.696761474609374,0.2684752643108368,-1.0464121103286743,-0.36819902062416077
1682880516755622400,13.713622314453126,0.08506298810243607,-1.3807082176208496,-0.2747366428375244
1682880516772508700,13.7305087890625,-0.128434419631958,-1.4891366958618164,-0.1739438772201538
1682880516789381000,13.747381103515625,-0.2606867551803589,-1.3406964540481567,-0.05390885844826698
1682880516806255400,13.76425537109375,-0.3000875413417816,-1.2218831777572632,-0.03680463135242462
1682880516823128000,13.781128173828124,-0.475253164768219,-2.3318252563476562,-0.9764680862426758
1682880516840001800,13.798001708984375,-0.5077817440032959,-4.003763675689697,-2.0667097568511963
1682880516856875300,13.814875244140625,-0.5102251768112183,-5.783061504364014,-2.236377716064453
1682880516873749200,13.831749267578125,-0.9447031021118164,-8.68574047088623,-1.4297300577163696
1682880516890622000,13.8486220703125,-2.217288017272949,-5.865833282470703,0.4453207552433014
1682880516907493400,13.865493408203125,-3.523012638092041,-1.2997685670852661,1.5732834339141846
1682880516924353000,13.88235302734375,-3.6641223430633545,0.6627888083457947,2.3235785961151123
1682880516941248000,13.899248046875,-3.0885345935821533,1.0288498401641846,2.5783095359802246
1682880516958113300,13.91611328125,-2.4161248207092285,0.19165897369384766,2.1305453777313232
1682880516974989800,13.93298974609375,-1.7773123979568481,-1.1320860385894775,1.5538884401321411
1682880516991860200,13.949860107421875,-1.217454433441162,-1.9703458547592163,1.183398723602295
1682880517008739000,13.966739013671875,-0.8746063113212585,-1.7649424076080322,0.8895725011825562
1682880517025606400,13.9836064453125,-0.6218608021736145,-0.9077457785606384,0.37201693654060364
1682880517042483700,14.000483642578125,-0.37598755955696106,0.36331209540367126,-0.17898350954055786
1682880517059356200,14.017356201171875,-0.2782491147518158,1.1032226085662842,-0.6443101167678833
1682880517076230700,14.034230712890626,-0.23839016258716583,1.072221279144287,-0.9521862268447876
1682880517093103600,14.051103515625,-0.1635591685771942,0.48976120352745056,-1.0659598112106323
1682880517109977300,14.067977294921874,-0.16050484776496887,-0.1518000066280365,-0.9958630800247192
1682880517126850300,14.084850341796875,-0.2616030275821686,-0.48808133602142334,-0.8678867816925049
1682880517143723300,14.10172314453125,-0.24266621470451355,-0.2695443034172058,-0.7967209815979004
1682880517160597800,14.11859765625,-0.01924225501716137,0.3194825351238251,-0.82207190990448
1682880517177471200,14.13547119140625,0.28756481409072876,0.7951938509941101,-0.8443684577941895
1682880517194346800,14.1523466796875,0.6207917928695679,1.0181596279144287,-0.8144360780715942
1682880517211204000,14.1692041015625,0.8727737069129944,1.22279953956604,-0.8005388975143433
1682880517228091000,14.1860908203125,1.0338894128799438,1.274264931678772,-0.8662069439888
1682880517244964900,14.20296484375,1.1969904899597168,0.8707883954048157,-0.9355401396751404
1682880517261835000,14.2198349609375,1.3587169647216797,-0.006261368747800589,-0.7360926270484924
1682880517278714400,14.23671435546875,1.443474531173706,-0.841619610786438,-0.2535090744495392
1682880517295584500,14.25358447265625,1.3347405195236206,-0.6024658679962158,0.054825156927108765
1682880517312458500,14.27045849609375,0.949895441532135,0.7631233930587769,0.04046982154250145
1682880517329331500,14.28733154296875,0.36621370911598206,1.5778648853302002,0.07116580009460449
1682880517346205400,14.304205322265625,-0.04505131021142006,0.931569516658783,0.3234531581401825
1682880517363078100,14.321078125,-0.6876815557479858,0.42378777265548706,0.8432994484901428
1682880517379952600,14.33795263671875,-1.3176363706588745,0.6438519954681396,1.201724648475647
1682880517396824800,14.354824951171874,-1.4271339178085327,1.0876455307006836,1.1313223838806152
1682880517413699000,14.371698974609375,-1.0725266933441162,1.5262467861175537,0.5532912015914917
1682880517430571800,14.38857177734375,-0.521984338760376,1.4966198205947876,0.005039638374000788
1682880517447446000,14.405446044921876,0.07452555745840073,0.727998673915863,0.4358523488044739
1682880517464319000,14.422319091796876,0.4239404797554016,-0.18448130786418915,1.2198978662490845
1682880517481193200,14.439193115234374,0.4944954216480255,-0.6029239892959595,1.630552053451538
1682880517498065700,14.456065673828125,0.38835757970809937,-0.5929974317550659,1.6769778728485107
1682880517514940000,14.47293994140625,0.2174680233001709,-0.2616030275821686,1.443474531173706
1682880517531809800,14.489809814453125,0.0913243517279625,0.4384485185146332,0.9899071455001831
1682880517548689200,14.506689208984374,-0.022907447069883347,1.2052371501922607,0.4251621961593628
1682880517565559600,14.5235595703125,-0.11789698898792267,1.7075210809707642,-0.020616702735424042
1682880517582433800,14.540433837890625,-0.06475171446800232,1.7388279438018799,-0.17577648162841797
1682880517599306500,14.557306396484375,-0.0064140851609408855,1.334282398223877,-0.17867808043956757
1682880517616180500,14.574180419921875,-0.028099801391363144,0.869719386100769,-0.19364428520202637
1682880517633053700,14.5910537109375,-0.0861319974064827,0.6032294034957886,-0.24083362519741058
1682880517649916700,14.607916748046875,-0.0936150997877121,0.35185837745666504,-0.24572055041790009
1682880517666800000,14.624800048828124,-0.036193765699863434,-0.0910189226269722,-0.23716843128204346
1682880517683674400,14.64167431640625,-0.01114829070866108,-0.6940956115722656,-0.3170390725135803
1682880517700547300,14.65854736328125,-0.07696902006864548,-1.2457069158554077,-0.48380526900291443
1682880517717421000,14.675421142578125,-0.15134187042713165,-1.5850425958633423,-0.6934847831726074
1682880517734294300,14.692294189453126,-0.13011430203914642,-1.7902933359146118,-0.917061448097229
1682880517751167700,14.709167724609374,-0.02519819140434265,-1.9532415866851807,-1.0917688608169556
1682880517768040700,14.726040771484374,0.13561208546161652,-2.0441079139709473,-1.189354658126831
1682880517784916200,14.742916259765625,0.3471241891384125,-1.9949331283569336,-1.2154691219329834
1682880517801786000,14.7597861328125,0.5383250117301941,-1.8362609148025513,-1.18492591381073
1682880517818661600,14.77666162109375,0.6491970419883728,-1.6366606950759888,-1.1239920854568481
1682880517835533000,14.793532958984375,0.7235698699951172,-1.4091134071350098,-1.034194827079773
1682880517852408300,14.810408203125,0.8077165484428406,-1.156978726387024,-0.9062185883522034
1682880517869281300,14.82728125,0.9210320711135864,-0.8868235945701599,-0.7458664774894714
1682880517886153000,14.844153076171875,1.0216721296310425,-0.608727216720581,-0.5766568183898926
1682880517903030800,14.86103076171875,1.0603092908859253,-0.32421672344207764,-0.4352414906024933
1682880517919902200,14.877902099609376,1.041067123413086,-0.0429132841527462,-0.33307427167892456
1682880517936772900,14.89477294921875,1.0013608932495117,0.21273382008075714,-0.2597704529762268
1682880517953652000,14.91165185546875,0.9749409556388855,0.40591996908187866,-0.20357084274291992
1682880517970521900,14.92852197265625,0.9845620393753052,0.5019785165786743,-0.14813482761383057
1682880517987383000,14.945383056640624,1.0170906782150269,0.5021312236785889,-0.06169738993048668
1682880518004262700,14.9622626953125,1.064738154411316,0.42791110277175903,0.07238753139972687
1682880518021144600,14.97914453125,1.120937705039978,0.30772337317466736,0.24984388053417206
1682880518038016000,14.99601611328125,1.1856894493103027,0.12599095702171326,0.4355469346046448
1682880518054889700,15.0128896484375,1.1753047704696655,-0.30375275015830994,0.5441282391548157
1682880518071760100,15.029760009765624,0.8341364860534668,-1.286634922027588,0.370947927236557
1682880518088641800,15.046641845703125,0.5004513263702393,-1.7621935606002808,0.38469240069389343
1682880518105499000,15.063498779296875,0.23808473348617554,-1.9251418113708496,0.5334380865097046
1682880518122383000,15.080383056640626,-0.03985895588994026,-1.811673641204834,0.6885978579521179
1682880518139256000,15.097256103515624,-0.4086688458919525,-1.7768542766571045,0.6809620261192322
1682880518156130600,15.114130615234375,-0.7980954647064209,-2.4802656173706055,0.20311269164085388
1682880518173003500,15.13100341796875,-1.5099061727523804,-4.566064834594727,-1.1331549882888794
1682880518189877000,15.147876953125,-2.0086777210235596,-5.909510612487793,-1.976149082183838
1682880518206750200,15.164750244140626,-2.197740316390991,-6.421873569488525,-2.2073614597320557
1682880518223624200,15.181624267578124,-2.616488456726074,-7.222412586212158,-2.831207752227783
1682880518240494000,15.198494140625,-2.903748035430908,-8.888547897338867,-4.478405952453613
1682880518257373400,15.21537353515625,-2.238363027572632,-10.09317398071289,-4.801706314086914
1682880518274244000,15.232244140625,-1.3936890363693237,-5.349804878234863,-0.30604347586631775
1682880518291117800,15.249117919921876,-1.232573390007019,-0.7386888265609741,2.909092903137207
1682880518307990500,15.265990478515626,-0.7344127297401428,0.33460143208503723,3.5188891887664795
1682880518324852500,15.2828525390625,-0.0734565481543541,-0.3833179473876953,2.4491114616394043
1682880518341726000,15.299725830078126,0.3764457106590271,-0.4427245855331421,1.2961033582687378
1682880518358604300,15.316604248046875,0.4008803069591522,0.2831360399723053,0.6979135274887085
1682880518375475000,15.333474853515625,0.37980547547340393,0.8965974450111389,0.33536502718925476
1682880518392348000,15.350347900390625,0.460897833108902,0.5523748993873596,-0.06261368840932846
1682880518409222400,15.367222412109374,0.49327367544174194,-0.8344419002532959,-0.4415028691291809
1682880518426094000,15.384093994140626,0.3680463135242462,-2.0958786010742188,-0.6470590233802795
1682880518442967600,15.400967529296874,0.14584407210350037,-2.8327348232269287,-0.8755226135253906
1682880518459846000,15.417845947265626,0.0861319974064827,-3.075859308242798,-1.2334896326065063
1682880518476715300,15.43471533203125,0.17073683440685272,-2.810438394546509,-1.655444860458374
1682880518493588500,15.45158837890625,0.26190847158432007,-2.052354574203491,-1.9052886962890625
1682880518510463200,15.468463134765624,0.3104722499847412,-1.2663236856460571,-1.6491833925247192
1682880518527338200,15.485338134765625,0.32421672344207764,-0.8996517658233643,-0.8820894360542297
1682880518544208100,15.5022080078125,0.3266601860523224,-0.9347765445709229,-0.04993823543190956
1682880518561085700,15.519085693359376,0.30573806166648865,-0.8967501521110535,0.422871470451355
1682880518577959200,15.535959228515624,0.31123584508895874,-0.6954700946807861,0.451582133769989
1682880518594829600,15.55282958984375,0.41752639412879944,-0.45891252160072327,0.10735956579446793
1682880518611704300,15.569704345703125,0.5684100985527039,-0.6327036619186401,-0.4363104999065399
1682880518628579300,15.586579345703125,0.7357872128486633,-1.419803500175476,-0.9269880056381226
1682880518645460700,15.603460693359375,1.023352026939392,-2.4578163623809814,-1.0965031385421753
1682880518662325800,15.62032568359375,1.3720033168792725,-3.0610456466674805,-0.915534257888794
1682880518679201300,15.637201171875,1.6149749755859375,-3.3298263549804688,-0.6681338548660278
1682880518696072200,15.654072265625,1.599703311920166,-2.721710205078125,-0.9250026941299438
1682880518712943400,15.670943359375,1.3002266883850098,-1.2892310619354248,-1.3923145532608032
1682880518729819600,15.687819580078125,0.5870414972305298,-0.12522737681865692,-1.626123309135437
1682880518746699500,15.704699462890625,0.05757404863834381,0.05100724846124649,-1.4065172672271729
1682880518763573800,15.72157373046875,-0.10644327104091644,-0.28466320037841797,-0.921184778213501
1682880518780458200,15.738458251953125,-0.3095559775829315,-0.40133845806121826,-0.4963280260562897
1682880518797320400,15.755320556640624,-0.5299255847930908,0.1290452778339386,0.0731511116027832
1682880518814193400,15.772193359375,-0.827111542224884,0.8171849846839905,0.7079927921295166
1682880518831067100,15.789067138671875,-1.1230757236480713,1.0867292881011963,1.0908526182174683
1682880518847940000,15.805940185546875,-1.2592986822128296,1.1084150075912476,1.1707231998443604
1682880518864814300,15.822814453125,-1.1688905954360962,1.3336715698242188,0.9043859839439392
1682880518881684200,15.839684326171875,-0.9879218339920044,1.7702875137329102,0.2967278063297272
1682880518898563600,15.8565634765625,-0.7661777138710022,1.9097174406051636,-0.3588833212852478
1682880518915434200,15.873434326171875,-0.5534439086914062,1.5083789825439453,-0.6224716901779175
1682880518932307500,15.890307373046875,-0.39706242084503174,0.8106181621551514,-0.5222898125648499
1682880518949181000,15.907180908203125,-0.42500948905944824,0.15057829022407532,-0.3576616048812866
1682880518966054700,15.9240546875,-0.5514585971832275,-0.3101668357849121,-0.19104810059070587
1682880518982928000,15.940927978515624,-0.6902777552604675,-0.5134322643280029,-0.01863138936460018
1682880518999801300,15.95780126953125,-0.793361246585846,-0.5543602108955383,0.15134187042713165
1682880519016674600,15.974674560546875,-0.7609853744506836,-0.6372851729393005,0.3355177342891693
1682880519033548300,15.99154833984375,-0.5209153294563293,-0.8900306820869446,0.5342016816139221
1682880519050421000,16.0084208984375,-0.16569720208644867,-1.2009611129760742,0.6919575929641724
1682880519067292400,16.02529248046875,0.08781187981367111,-1.4260649681091309,0.7168503403663635
1682880519084170800,16.042170654296875,0.166460782289505,-1.569007396697998,0.5864306092262268
1682880519101042200,16.059042236328125,0.16310101747512817,-1.741729497909546,0.3075706362724304
1682880519117898500,16.0758984375,0.17379115521907806,-1.9222402572631836,-0.02382374368607998
1682880519134791200,16.092791259765626,0.275347501039505,-1.9217820167541504,-0.25824329257011414
1682880519151659300,16.1096591796875,0.45524731278419495,-1.7745635509490967,-0.30894508957862854
1682880519168534300,16.1265341796875,0.6346889734268188,-1.579850196838379,-0.21441370248794556
1682880519185412900,16.143412841796874,0.7693848013877869,-1.4118622541427612,-0.08216137439012527
1682880519202282500,16.160282470703127,0.8686503767967224,-1.2977832555770874,-0.008704829961061478
1682880519219153000,16.17715283203125,0.9416487812995911,-1.2111930847167969,-0.029474247246980667
1682880519236021500,16.194021484375,1.0126618146896362,-1.1093312501907349,-0.1495092660188675
1682880519252902400,16.21090234375,1.1018482446670532,-1.0030407905578613,-0.3246748745441437
1682880519269776400,16.2277763671875,1.2185235023498535,-0.8958339095115662,-0.471129834651947
1682880519286649000,16.244649169921875,1.3478741645812988,-0.7925976514816284,-0.5500841736793518
1682880519303522800,16.261522705078125,1.4628695249557495,-0.6827946305274963,-0.5682573914527893
1682880519320385300,16.27838525390625,1.476919412612915,-0.551916778087616,-0.5633704662322998
1682880519337270000,16.29527001953125,1.320690631866455,-0.35582900047302246,-0.6163630485534668
1682880519354143000,16.31214306640625,1.072068452835083,-0.1463022232055664,-0.718224823474884
1682880519371016700,16.3290166015625,0.8002334833145142,-0.013133603148162365,-0.7982481718063354
1682880519387889700,16.3458896484375,0.512210488319397,0.1713477075099945,-0.8538368940353394
1682880519404763400,16.362763427734375,0.16432274878025055,0.41233405470848083,-0.8996517658233643
1682880519421633800,16.3796337890625,-0.15561792254447937,0.6097962260246277,-0.9396634697914124
1682880519438513200,16.39651318359375,-0.3520110845565796,0.051770828664302826,-1.2424999475479126
1682880519455383300,16.41338330078125,-0.6417139172554016,-1.3322970867156982,-1.6694947481155396
1682880519472246500,16.43024658203125,-0.9434813857078552,-2.7768406867980957,-1.6352862119674683
1682880519489130000,16.4471298828125,-1.2921327352523804,-4.638299942016602,-1.4382822513580322
1682880519506004000,16.46400390625,-1.8399261236190796,-7.2095842361450195,-1.5815300941467285
1682880519522875600,16.480875732421875,-2.351067543029785,-10.036516189575195,-2.029905319213867
1682880519539751700,16.497751708984374,-2.4825563430786133,-13.351529121398926,-2.467590093612671
1682880519556624000,16.514623779296876,-2.3889412879943848,-16.007417678833008,-2.42360782623291
1682880519573497300,16.531497314453127,-2.395049810409546,-7.830223560333252,-3.0463850498199463
1682880519590370600,16.54837060546875,-2.210721254348755,-0.3090978264808655,0.4821254014968872
1682880519607242500,16.565242431640623,-1.8836029767990112,0.37339138984680176,3.307529926300049
1682880519624119600,16.58211962890625,-1.7061465978622437,-0.9634872078895569,3.9206857681274414
1682880519640991200,16.5989912109375,-1.4078916311264038,-3.1635184288024902,2.487137794494629
1682880519657864000,16.615864013671874,-0.8698720932006836,-2.63191294670105,1.5880969762802124
1682880519674749400,16.63274951171875,-0.5203045010566711,-0.9421069025993347,1.2446379661560059
1682880519691608800,16.64960888671875,-0.4231768846511841,0.18051068484783173,0.8588765263557434
1682880519708487200,16.666487060546874,-0.2603813111782074,0.5044219493865967,0.4558582007884979
1682880519725359600,16.683359619140624,0.03756821155548096,0.18219055235385895,-0.002138028386980295
1682880519742232300,16.700232421875,0.17592918872833252,-0.3972151279449463,-0.3597996234893799
1682880519759104500,16.7171044921875,0.24984388053417206,-0.6818783283233643,-0.6366742849349976
1682880519775967700,16.7339677734375,0.337503045797348,-0.6012440919876099,-0.9844093322753906
1682880519792851700,16.750851806640625,0.36560285091400146,-0.5396994352340698,-1.3416128158569336
1682880519809725400,16.767725341796876,0.35155296325683594,-0.6637051105499268,-1.6200146675109863
1682880519826598100,16.78459814453125,0.3113885521888733,-0.7805330753326416,-1.8046486377716064
1682880519843472400,16.801472412109376,0.32498031854629517,-0.5581781268119812,-1.8629863262176514
1682880519860345300,16.818345458984375,0.43615779280662537,-0.11835514008998871,-1.751808762550354
1682880519877210400,16.83521044921875,0.537408709526062,0.25503623485565186,-1.5430456399917603
1682880519894091800,16.852091796875,0.5781839489936829,0.3237585723400116,-1.2515101432800293
1682880519910966000,16.868966064453126,0.6041457056999207,0.1638645976781845,-1.0131200551986694
1682880519927838500,16.88583837890625,0.5639813542366028,-0.28099802136421204,-0.6837109327316284
1682880519944712700,16.902712646484375,0.25564709305763245,-0.3323107063770294,-0.03405573591589928
1682880519961583000,16.9195830078125,-0.36102136969566345,0.14126259088516235,0.5057964324951172
1682880519978462000,16.9364619140625,-0.640644907951355,-0.1765400618314743,0.6751587986946106
1682880519995332400,16.953332275390625,-0.7915286421775818,-0.2515237629413605,0.7461718916893005
1682880520012206000,16.9702060546875,-0.9181304574012756,0.3585779070854187,0.8717046976089478
1682880520029079000,16.9870791015625,-1.1032226085662842,0.8211556077003479,1.0323622226715088
1682880520045953000,17.003953125,-0.8952230215072632,0.5109887719154358,0.7087563872337341
1682880520062826200,17.020826171875,0.11484266817569733,-0.5566509366035461,-0.007788531947880983
1682880520079699000,17.037698974609373,0.8620835542678833,-0.9045386910438538,-0.09040805697441101
1682880520096573700,17.05457373046875,0.9863946437835693,-0.3289509415626526,0.6577491760253906
1682880520113446700,17.07144677734375,0.7806857824325562,0.7254024744033813,1.2848023176193237
1682880520130319400,17.0883193359375,0.6394231915473938,1.2907582521438599,1.2359330654144287
1682880520147193300,17.105193359375,0.4538728892803192,1.2623530626296997,0.893390417098999
1682880520164066600,17.122066650390625,0.28435778617858887,1.0250319242477417,0.7342600226402283
1682880520180940000,17.13893994140625,0.17180584371089935,0.741895854473114,0.6885978579521179
1682880520197803300,17.15580322265625,0.014049900695681572,0.4375322461128235,0.6904304623603821
1682880520214687200,17.172687255859376,-0.19746218621730804,0.3497203588485718,0.7008151412010193
1682880520231557000,17.18955712890625,-0.34208452701568604,0.23655757308006287,0.4207334518432617
1682880520248436200,17.206436279296874,-0.15225815773010254,-0.10980302840471268,-0.5612324476242065
1682880520265307000,17.223306884765623,-0.029626963660120964,-0.4314235746860504,-1.2980886697769165
1682880520282180600,17.2401806640625,0.05009094998240471,-0.697760820388794,-1.5128077268600464
1682880520299053800,17.2570537109375,0.19975294172763824,-0.8158105611801147,-1.4511103630065918
1682880520315917000,17.2739169921875,0.40362921357154846,-0.7904596328735352,-1.074512004852295
1682880520332800300,17.29080029296875,0.630871057510376,-0.6603453159332275,-0.4703662395477295
1682880520349674000,17.307674072265623,0.8538368940353394,-0.4294382631778717,0.1537853181362152
1682880520366547000,17.324546875,1.0832167863845825,-0.12950342893600464,0.5154175758361816
1682880520383421000,17.3414208984375,1.2583824396133423,0.19058994948863983,0.5283984541893005
1682880520400292600,17.358292724609374,1.334282398223877,0.3827070891857147,0.2776382565498352
1682880520417169200,17.375169189453125,1.3365731239318848,0.5073235630989075,-0.09957103431224823
1682880520434041000,17.392041015625,1.3284791707992554,0.6467535495758057,-0.4612032473087311
1682880520450914800,17.408914794921873,1.3607022762298584,0.8339837789535522,-0.7273877859115601
1682880520467787300,17.425787353515624,1.40269935131073,0.9818131923675537,-0.9146180152893066
1682880520484662000,17.442662109375,1.3871222734451294,1.0386236906051636,-1.0468703508377075
1682880520501533000,17.459532958984376,1.2744176387786865,0.9726501703262329,-1.150259256362915
1682880520518409200,17.4764091796875,1.0674870014190674,0.7237225770950317,-1.2560917139053345
1682880520535281400,17.493281494140625,0.8558222055435181,0.15393804013729095,-1.426675796508789
1682880520552155100,17.510155029296875,0.7759515643119812,-0.607810914516449,-1.5158621072769165
1682880520569028000,17.527028076171874,0.7302893996238708,-1.0955867767333984,-1.2776246070861816
1682880520585891300,17.543891357421874,0.6146831512451172,-1.1676689386367798,-0.7619016766548157
1682880520602774500,17.5607744140625,0.3900374472141266,-1.0293079614639282,-0.19654589891433716
1682880520619648800,17.577648681640625,0.0006108652451075613,-1.0645854473114014,0.11148291081190109
1682880520636521700,17.594521728515623,-0.3159700334072113,-1.6404786109924316,-0.032528575509786606
1682880520653395700,17.611395751953125,-0.36193767189979553,-2.12397837638855,-0.1365283876657486
1682880520670268400,17.628268310546876,-0.3831652104854584,-2.085341215133667,0.05757404863834381
1682880520687142400,17.645142333984374,-0.593913733959198,-1.6727017164230347,0.08888089656829834
1682880520704014800,17.662014892578124,-0.9976956844329834,-1.3434454202651978,-0.7221954464912415
1682880520720888800,17.678888916015627,-1.0848966836929321,-1.4025466442108154,-1.6557502746582031
1682880520737765600,17.695765625,-0.6937901973724365,-4.069584369659424,-1.516931176185608
1682880520754632400,17.712632568359375,-0.7744244337081909,-6.285498142242432,0.6466008424758911
1682880520771504400,17.72950439453125,-2.109928607940674,-3.483611822128296,2.406656265258789
1682880520788387300,17.74638720703125,-3.304780960083008,-0.489608496427536,2.378098487854004
1682880520805255400,17.76325537109375,-3.3794591426849365,0.8228355050086975,2.3736696243286133
1682880520822129200,17.780129150390625,-2.9636127948760986,0.9576839804649353,2.615419626235962
1682880520839002000,17.797002197265623,-2.504394769668579,0.446389764547348,2.666274070739746
1682880520855865600,17.813865478515623,-2.032959461212158,-0.5963571667671204,2.2340869903564453
1682880520872749300,17.830749267578124,-1.4356859922409058,-1.3756685256958008,1.5563318729400635
1682880520889623000,17.847623046875,-1.0771081447601318,-0.9169087409973145,0.7345654368400574
1682880520906483500,17.8644833984375,-1.1074986457824707,1.0143417119979858,-0.31642818450927734
1682880520923369700,17.88136962890625,-1.161102056503296,2.89534854888916,-0.8918632864952087
1682880520940242400,17.898242431640625,-0.9857838153839111,3.0187432765960693,-0.9111055135726929
1682880520957111300,17.915111328125,-0.5404630303382874,1.8362609148025513,-1.2796099185943604
1682880520973989600,17.93198974609375,-0.1745547503232956,0.8486445546150208,-1.7731890678405762
1682880520990863600,17.948863525390625,-0.13973543047904968,0.8675813674926758,-1.9500346183776855
1682880521007725600,17.9657255859375,-0.4634940028190613,1.4934128522872925,-1.9460639953613281
1682880521024610300,17.9826103515625,-0.8866708874702454,2.1737639904022217,-1.856266736984253
1682880521041485000,17.999485107421876,-1.0453431606292725,2.434908866882324,-1.5833626985549927
1682880521058345000,18.016344970703123,-0.7597636580467224,2.0531179904937744,-1.0096075534820557
1682880521075229700,18.033229736328124,0.11820242553949356,1.5120441913604736,-0.40775254368782043
1682880521092103700,18.050103759765626,1.3078625202178955,1.7134770154953003,0.06123924255371094
1682880521108976400,18.066976318359377,1.9405661821365356,1.193172574043274,0.6185010671615601
1682880521125840000,18.08383984375,2.1138992309570312,0.3019201457500458,0.9960157871246338
1682880521142723600,18.1007236328125,2.0112738609313965,0.10995574295520782,0.7641924023628235
1682880521159597000,18.11759716796875,1.4756977558135986,0.2828305959701538,0.23273965716362
1682880521176457200,18.134457275390623,0.8616254329681396,-0.05192354694008827,-0.058337632566690445
1682880521193334300,18.151334228515626,0.34758231043815613,-0.5965099334716797,-0.16844609379768372
1682880521210208300,18.168208251953125,-0.5366451144218445,-0.42180246114730835,-0.017562376335263252
1682880521227091000,18.185091064453125,-1.874592661857605,0.3223841190338135,0.39064833521842957
1682880521243964000,18.2019638671875,-2.4411702156066895,0.9379835724830627,0.35643985867500305
1682880521260837600,18.218837646484374,-1.7150042057037354,0.8570439219474792,0.2571742534637451
1682880521277710600,18.235710693359376,-0.40591996908187866,0.7771732807159424,1.0009026527404785
1682880521294584300,18.252584228515627,0.3663664162158966,0.7469354867935181,1.1789699792861938
1682880521311454500,18.269454345703124,0.3049744665622711,1.0199922323226929,0.7480044960975647
1682880521328333600,18.28633349609375,-0.05268712714314461,1.187827467918396,0.7538077235221863
1682880521345204000,18.303203857421874,-0.11636982858181,1.1681270599365234,1.0160216093063354
1682880521362077700,18.32007763671875,-0.07467827945947647,1.1869112253189087,1.263269305229187
1682880521378951000,18.336950927734375,0.011453723534941673,1.2237157821655273,1.5519031286239624
1682880521395814700,18.353814697265626,0.16401731967926025,0.9767735004425049,1.8891007900238037
1682880521412697300,18.370697265625,0.44257187843322754,0.9482156038284302,2.0622811317443848
1682880521429571000,18.387571044921874,0.8491026759147644,1.610698938369751,1.933235764503479
1682880521446444300,18.4044443359375,1.1749993562698364,2.559830904006958,1.496467113494873
1682880521463311600,18.4213115234375,1.2777774333953857,3.5714237689971924,0.8753699064254761
1682880521480191200,18.438191162109376,1.1421653032302856,4.407392978668213,0.21807889640331268
1682880521497065000,18.45506494140625,0.8093964457511902,4.721224784851074,-0.47968193888664246
1682880521513937700,18.471937744140625,0.41141775250434875,4.246735095977783,-1.1782063245773315
1682880521530811400,18.488811279296876,0.2054034322500229,3.1557297706604004,-1.674992561340332
1682880521547684400,18.505684326171874,0.13377949595451355,2.014939069747925,-1.8733710050582886
1682880521564558300,18.522558349609376,0.08949175477027893,1.252121090888977,-1.9260581731796265
1682880521581429000,18.539428955078126,0.02076941914856434,0.5948300361633301,-1.9521726369857788
1682880521598307800,18.556307861328126,-0.13866640627384186,-0.08246681094169617,-2.020589590072632
1682880521615178200,18.57317822265625,-0.2993239760398865,-0.7159340381622314,-2.110692024230957
1682880521632049200,18.590049072265625,-0.2330450862646103,-0.9845620393753052,-2.1337523460388184
1682880521648927200,18.60692724609375,-0.09437867999076843,-0.8772025108337402,-2.200183868408203
1682880521665788200,18.6237880859375,-0.12721268832683563,-0.5528330206871033,-2.5889995098114014
1682880521682669000,18.6406689453125,-0.19043724238872528,-0.17012597620487213,-2.713310718536377
1682880521699548400,18.65754833984375,-0.04917465150356293,0.01160643994808197,-1.9932533502578735
1682880521716419000,18.674419189453126,0.3995058834552765,0.04459316283464432,-0.37308594584465027
1682880521733292500,18.69129248046875,0.8550586104393005,0.27091872692108154,1.241125464439392
1682880521750165000,18.7081650390625,1.178359031677246,0.6006332635879517,2.297769546508789
1682880521767039000,18.7250390625,1.4161384105682373,0.993114173412323,2.9660561084747314
1682880521783911700,18.74191162109375,1.3451253175735474,0.43967026472091675,2.8820621967315674
1682880521800773600,18.758773681640626,1.3892602920532227,-0.0039706239476799965,2.1096231937408447
1682880521817650400,18.775650390625,1.2889256477355957,-0.022449297830462456,0.7733554244041443
1682880521834521600,18.792521484375,0.9801332950592041,0.9404270648956299,-0.10506882518529892
1682880521851395800,18.809395751953126,0.6647741198539734,2.3626739978790283,-0.21823160350322723
1682880521868270000,18.82627001953125,0.5978843569755554,3.0831897258758545,-0.6331618428230286
1682880521885146400,18.843146484375,0.8064948320388794,1.519832730293274,-2.1143572330474854
1682880521902017000,18.86001708984375,0.7399105429649353,-2.702162504196167,-2.3218986988067627
1682880521918892000,18.87689208984375,-0.1540907621383667,-5.750532627105713,0.3718642294406891
1682880521935761700,18.89376171875,-1.8293887376785278,-3.7568211555480957,2.7209465503692627
1682880521952646000,18.91064599609375,-3.2533156871795654,-0.7774787545204163,2.556623697280884
1682880521969511000,18.927510986328127,-4.1470112800598145,1.4508049488067627,1.95965576171875
1682880521986383600,18.944383544921877,-4.5877509117126465,1.6711746454238892,2.108401298522949
1682880522003256800,18.9612568359375,-4.313777446746826,0.5870414972305298,1.9911152124404907
1682880522020128300,18.978128173828125,-3.4790303707122803,-0.15622878074645996,1.2928962707519531
1682880522037003800,18.995003662109376,-2.5662448406219482,-0.38438695669174194,0.5458080768585205
1682880522053881300,19.01188134765625,-2.119244337081909,-0.30283644795417786,-0.03573561832308769
1682880522070754600,19.028754638671874,-2.0480785369873047,-0.6200281977653503,-0.6064364910125732
1682880522087631000,19.045631103515625,-1.8132007122039795,-0.6064364910125732,-0.9697485566139221
1682880522104499000,19.0624990234375,-1.2701416015625,-0.07422012835741043,-1.0322095155715942
1682880522121368800,19.079368896484375,-0.7805330753326416,1.0713049173355103,-0.6496551632881165
1682880522138253300,19.09625341796875,-0.6107125282287598,2.2185099124908447,-0.046731192618608475
1682880522155117800,19.113117919921876,-0.5639813542366028,2.1372647285461426,0.4072943925857544
1682880522171990300,19.129990234375,-0.4531092941761017,1.7140878438949585,0.5703954100608826
1682880522188862500,19.146862548828125,-0.3501785099506378,1.449125051498413,0.4248567819595337
1682880522205739000,19.163739013671876,-0.2900082767009735,1.215927243232727,-0.01924225501716137
1682880522222614300,19.1806142578125,-0.13225232064723969,0.982729434967041,-0.5842925906181335
1682880522239485000,19.19748486328125,0.24526239931583405,1.0291552543640137,-1.0592403411865234
1682880522256356000,19.214356201171874,0.7498371005058289,1.3536773920059204,-1.4811954498291016
1682880522273231400,19.2312314453125,1.2006556987762451,1.5323554277420044,-1.9646953344345093
1682880522290102800,19.248102783203127,1.6032158136367798,0.8235990405082703,-1.9184223413467407
1682880522306977800,19.264977783203125,1.9150625467300415,-0.5670356750488281,-0.49128836393356323
1682880522323854800,19.281854736328125,1.9970711469650269,-0.7586946487426758,0.9640980958938599
1682880522340725500,19.2987255859375,1.7304285764694214,0.2557998299598694,0.8460483551025391
1682880522357597000,19.315596923828124,0.9639453291893005,1.0248792171478271,0.0910189226269722
1682880522374475500,19.3324755859375,0.14263702929019928,0.5824599862098694,-0.17073683440685272
1682880522391342600,19.349342529296877,-0.7733554244041443,-0.6737843751907349,-0.026419922709465027
1682880522408222200,19.36622216796875,-2.119091510772705,-0.5381723046302795,0.23548854887485504
1682880522425095700,19.383095703125,-2.5671610832214355,-0.038026362657547,0.399200439453125
1682880522441964000,19.399964111328124,-1.5318973064422607,-0.3773620128631592,0.8373435139656067
1682880522458849500,19.416849609375,0.1014036312699318,-0.3433062732219696,1.5612188577651978
1682880522475710500,19.43371044921875,0.7910705208778381,-0.07590000331401825,1.5612188577651978
1682880522492593400,19.450593505859374,0.8546004891395569,-0.2275473028421402,0.9822713136672974
1682880522509449700,19.46744970703125,0.561079740524292,-0.1485929638147354,0.5593998432159424
1682880522526340400,19.48434033203125,0.25931230187416077,0.07559457421302795,0.4303545653820038
1682880522543214000,19.501214111328125,0.09285151958465576,0.4567744731903076,0.32849279046058655
1682880522560087300,19.51808740234375,0.09010262042284012,0.8497135639190674,0.27320948243141174
1682880522576961300,19.534961181640625,0.22602014243602753,1.1062769889831543,0.28878653049468994
1682880522593833700,19.551833740234375,0.49617528915405273,1.0590876340866089,0.3651446998119354
1682880522610707700,19.568707763671874,0.8491026759147644,0.8616254329681396,0.3162754774093628
1682880522627580400,19.585580322265624,1.0806206464767456,0.7973318696022034,0.10277807712554932
1682880522644454100,19.6024541015625,1.1068878173828125,0.8663596510887146,-0.15531249344348907
1682880522661324800,19.61932470703125,1.010829210281372,1.0282388925552368,-0.365755558013916
1682880522678204000,19.636203857421876,0.9582948684692383,1.2573133707046509,-0.4560109078884125
1682880522695073800,19.65307373046875,0.9673051238059998,1.4271339178085327,-0.42668938636779785
1682880522711947800,19.66994775390625,0.9651671051979065,1.3338242769241333,-0.3784310221672058
1682880522728820700,19.68682080078125,0.8885034918785095,1.0290025472640991,-0.42302417755126953
1682880522745683700,19.70368359375,0.7519751191139221,0.746630072593689,-0.5885686874389648
1682880522762567400,19.7205673828125,0.6533203721046448,0.44944411516189575,-0.8332201838493347
1682880522779438300,19.737438232421876,0.651945948600769,0.22021691501140594,-1.032820463180542
1682880522796317400,19.7543173828125,0.6650795340538025,0.0731511116027832,-1.257924199104309
1682880522813187800,19.771187744140626,0.5393940210342407,-0.2047925740480423,-1.595579981803894
1682880522830060800,19.788060791015624,0.3773620128631592,-0.4812090992927551,-1.935831904411316
1682880522846934800,19.804934814453127,0.44486260414123535,-0.5361869931221008,-2.0728185176849365
1682880522863807700,19.821807861328125,0.6882924437522888,-0.5586362481117249,-2.0587685108184814
1682880522880681700,19.838681640625,0.8782715201377869,-0.6531676650047302,-1.962251901626587
1682880522897554700,19.8555546875,0.9219483733177185,-0.9279043078422546,-1.8741345405578613
1682880522914428400,19.872428466796876,0.9011789560317993,-1.3628404140472412,-1.772578239440918
1682880522931304000,19.889303955078127,0.8512406945228577,-1.712560772895813,-1.5054774284362793
1682880522948171800,19.906171875,0.7108944058418274,-1.892460584640503,-1.0882564783096313
1682880522965047800,19.9230478515625,0.47510045766830444,-2.08747935295105,-0.8109236359596252
1682880522981921800,19.939921875,0.29138273000717163,-2.367102861404419,-0.8184067010879517
1682880522998794500,19.95679443359375,0.23869559168815613,-2.5941920280456543,-0.9191994667053223
1682880523015666400,19.97366650390625,0.24617868661880493,-2.523331642150879,-1.211803913116455
1682880523032541400,19.99054150390625,0.11102475970983505,-2.2652411460876465,-2.082592248916626
1682880523049415000,20.007414794921875,-0.2874121069908142,-5.330410003662109,-1.588249683380127
1682880523066287900,20.024287841796873,-1.3264938592910767,-5.476559638977051,1.87611985206604
1682880523083162400,20.041162353515624,-2.8096747398376465,-1.665218710899353,3.3159291744232178
1682880523100034800,20.058034912109374,-3.819434881210327,0.6253733038902283,2.754849433898926
1682880523116908500,20.074908447265624,-4.382041931152344,0.6284276247024536,1.8532124757766724
1682880523133781500,20.091781494140626,-4.385096073150635,-0.3039054572582245,1.6140587329864502
1682880523150655500,20.108655517578125,-4.037361145019531,-1.0758863687515259,1.695609211921692
1682880523167528000,20.12552783203125,-3.5610389709472656,-1.930334210395813,1.5318973064422607
1682880523184402000,20.14240185546875,-2.961322069168091,-2.634661912918091,0.7638869881629944
1682880523201272300,20.159272216796875,-2.2117903232574463,-2.5636487007141113,-0.09758572280406952
1682880523218151400,20.1761513671875,-1.452942967414856,-1.8208365440368652,-0.8361217975616455
1682880523235021800,20.193021728515625,-0.9772316813468933,-1.0236574411392212,-1.202946424484253
1682880523251893000,20.20989306640625,-0.6893614530563354,-0.44287729263305664,-1.2469286918640137
1682880523268770800,20.226770751953126,-0.32971450686454773,0.04596760869026184,-1.0980303287506104
1682880523285638700,20.243638671875,0.020922135561704636,0.5586362481117249,-0.7677049040794373
1682880523302515000,20.260514892578126,0.2538145184516907,0.826195240020752,-0.41828998923301697
1682880523319389000,20.277388916015624,0.35155296325683594,0.7874053120613098,-0.2854267954826355
1682880523336262000,20.294261962890626,0.39324450492858887,0.64217209815979,-0.375071257352829
1682880523353135900,20.311135986328125,0.44654250144958496,0.5028948187828064,-0.6003278493881226
1682880523370003500,20.32800341796875,0.5589417219161987,0.49266281723976135,-0.878576934337616
1682880523386884900,20.344884765625,0.7347181439399719,0.8104654550552368,-1.1601858139038086
1682880523403755000,20.361755126953124,0.9683741331100464,1.154077172279358,-1.5135713815689087
1682880523420618200,20.3786181640625,1.28128981590271,0.5025894045829773,-1.8309158086776733
1682880523437502000,20.395501953125,1.7716618776321411,-1.3347405195236206,-1.5210545063018799
1682880523454376000,20.4123759765625,2.177123785018921,-2.892599582672119,-0.7235698699951172
1682880523471261000,20.429260986328124,2.492330312728882,-2.8182268142700195,-0.4303545653820038
1682880523488121300,20.446121337890624,2.3319780826568604,-1.310916781425476,-0.6430884003639221
1682880523504995300,20.462995361328126,1.6154330968856812,-0.1869247704744339,-0.6319400668144226
1682880523521858600,20.479858642578126,0.07513642311096191,0.4812090992927551,0.021838432177901268
1682880523538741800,20.49674169921875,-1.544114589691162,0.18127426505088806,1.117730736732483
1682880523555615700,20.51361572265625,-1.8336647748947144,-0.9297369122505188,1.614822268486023
1682880523572488400,20.530488525390624,-1.2111930847167969,-1.1809552907943726,2.0891592502593994
1682880523589362400,20.547362548828126,-0.3257438838481903,-0.251218318939209,2.8289170265197754
1682880523606235400,20.5642353515625,0.07269296050071716,-0.12370020896196365,2.373058795928955
1682880523623108400,20.5811083984375,0.07788532227277756,-0.09773843735456467,1.5322027206420898
1682880523639982600,20.597982666015625,-0.08674286305904388,0.0907134860754013,1.1071932315826416
1682880523656855600,20.61485546875,-0.2672535479068756,0.41630467772483826,0.8634580373764038
1682880523673728500,20.631728515625,-0.40591996908187866,0.9204211831092834,0.6351471543312073
1682880523690602500,20.6486025390625,-0.4537201523780823,1.3649784326553345,0.4778493344783783
1682880523707475500,20.665475341796874,-0.24587325751781464,1.482569932937622,0.399200439453125
1682880523724349200,20.68234912109375,0.375529408454895,1.2344059944152832,0.25014930963516235
1682880523741221600,20.6992216796875,0.8358163833618164,0.8741481900215149,-0.04046982154250145
1682880523758096400,20.716096435546874,0.9271407127380371,0.5419901609420776,-0.35521814227104187
1682880523774968600,20.732968505859375,0.7499898076057434,0.3098613917827606,-0.6064364910125732
1682880523791840000,20.749840087890625,0.5577199459075928,0.1498146951198578,-0.7386888265609741
1682880523808718000,20.766718017578125,0.49877145886421204,-0.0835358202457428,-0.7249443531036377
1682880523825589200,20.78358935546875,0.5247332453727722,-0.3758348524570465,-0.5905539989471436
1682880523842462500,20.80046240234375,0.6233879923820496,-0.35903605818748474,-0.5453499555587769
1682880523859336200,20.817336181640623,0.7564038634300232,-0.13377949595451355,-0.7041749358177185
1682880523876209000,20.834208984375,0.841619610786438,0.025656340643763542,-0.9862419366836548
1682880523893082600,20.85108251953125,0.8510879874229431,0.05925392732024193,-1.3028228282928467
1682880523909955800,20.867955810546874,0.7987062931060791,0.03878994286060333,-1.5998560190200806
1682880523926829300,20.884829345703125,0.7383833527565002,0.05757404863834381,-1.810146450996399
1682880523943702300,20.901702392578127,0.7762570381164551,0.1437060534954071,-1.8694003820419312
1682880523960576500,20.918576416015625,0.9086620807647705,0.21609358489513397,-1.7873916625976562
1682880523977449000,20.935448974609375,1.0685560703277588,0.18448130786418915,-1.6126842498779297
1682880523994322400,20.952322509765626,1.1479685306549072,-0.03878994286060333,-1.457371711730957
1682880524011195400,20.9691953125,1.0751228332519531,-0.5493205785751343,-1.441641926765442
1682880524028069400,20.9860693359375,0.9103419184684753,-1.2166908979415894,-1.4521794319152832
1682880524044940000,21.00293994140625,0.7195992469787598,-1.6368134021759033,-1.2553280591964722
1682880524061818600,21.019818603515624,0.5248859524726868,-1.878563404083252,-0.9718865752220154
1682880524078689000,21.03668896484375,0.29886582493782043,-2.3380868434906006,-0.9367618560791016
1682880524095561500,21.0535615234375,0.18906278908252716,-3.065474510192871,-1.1658363342285156
1682880524112436700,21.070436767578126,0.2790127098560333,-3.2591187953948975,-0.9862419366836548
1682880524129309200,21.08730908203125,0.26343563199043274,-3.1276299953460693,-0.8365799784660339
1682880524146180000,21.10418017578125,0.30405816435813904,-3.0312659740448,-1.2376129627227783
1682880524163059000,21.121058837890626,0.266184538602829,-3.4991888999938965,-1.8657351732254028
