time,seconds_elapsed,z,y,x
1682880503171223300,0.129223388671875,-29.87779998779297,-30.951398849487305,-13.175999641418457
1682880503181212400,0.13921240234375,-29.4507999420166,-31.19540023803711,-13.297999382019043
1682880503191223300,0.149223388671875,-30.5,-31.183198928833008,-15.066999435424805
1682880503201223200,0.15922314453125,-29.316598892211914,-30.79279899597168,-14.73759937286377
1682880503211212300,0.16921240234375,-29.14579963684082,-30.51219940185547,-14.298399925231934
1682880503221223200,0.17922314453125,-29.243398666381836,-30.53660011291504,-15.347599983215332
1682880503231223000,0.18922314453125,-29.194599151611328,-31.317399978637695,-15.39639949798584
1682880503241212400,0.19921240234375,-27.242599487304688,-30.731800079345703,-15.04259967803955
1682880503251223300,0.209223388671875,-27.950199127197266,-31.610198974609375,-14.261799812316895
1682880503261204500,0.21920458984375,-27.327999114990234,-31.610198974609375,-15.103599548339844
1682880503271223000,0.22922314453125,-27.706199645996094,-31.610198974609375,-14.371600151062012
1682880503281226800,0.239226806640625,-27.962398529052734,-31.707799911499023,-14.786399841308594
1682880503291206400,0.249206298828125,-27.80379867553711,-31.634599685668945,-15.518399238586426
1682880503301223400,0.259223388671875,-28.852998733520508,-31.500398635864258,-16.030799865722656
1682880503311222800,0.269222900390625,-26.718000411987305,-31.17099952697754,-15.90880012512207
1682880503321223200,0.27922314453125,-26.80340003967285,-31.939599990844727,-15.018199920654297
1682880503331219000,0.289218994140625,-27.41339874267578,-31.951799392700195,-14.810799598693848
1682880503341223700,0.2992236328125,-26.547199249267578,-31.524799346923828,-16.457799911499023
1682880503351212500,0.309212646484375,-26.620399475097656,-32.305599212646484,-16.396799087524414
1682880503361223400,0.319223388671875,-25.766399383544922,-32.28120040893555,-16.396799087524414
1682880503371221500,0.329221435546875,-25.4247989654541,-32.46419906616211,-17.14099884033203
1682880503381223000,0.339222900390625,-24.814800262451172,-32.549598693847656,-18.092599868774414
1682880503391216400,0.34921630859375,-24.741600036621094,-32.72039794921875,-17.994998931884766
1682880503401212400,0.35921240234375,-24.058399200439453,-32.43980026245117,-18.092599868774414
1682880503411223300,0.369223388671875,-23.777799606323242,-32.78139877319336,-18.214599609375
1682880503421223200,0.37922314453125,-23.314199447631836,-32.4276008605957,-18.824600219726562
1682880503431213300,0.38921337890625,-23.277599334716797,-32.354400634765625,-19.654199600219727
1682880503441223000,0.399222900390625,-22.057600021362305,-32.4276008605957,-20.703399658203125
1682880503451233500,0.409233642578125,-21.996599197387695,-32.1713981628418,-20.788799285888672
1682880503461223200,0.41922314453125,-21.118200302124023,-32.683799743652344,-21.764799118041992
1682880503471223300,0.429223388671875,-19.84939956665039,-32.90340042114258,-21.679399490356445
1682880503481212400,0.43921240234375,-20.142200469970703,-33.183998107910156,-22.326000213623047
1682880503491212500,0.449212646484375,-18.54399871826172,-32.622798919677734,-22.716400146484375
1682880503501223000,0.459222900390625,-15.762399673461914,-33.684200286865234,-23.0945987701416
1682880503511213800,0.4692138671875,-15.25,-34.001399993896484,-22.704198837280273
1682880503521223200,0.47922314453125,-15.506199836730957,-34.11119842529297,-23.021400451660156
1682880503531225900,0.489225830078125,-15.066999435424805,-33.84280014038086,-23.423999786376953
1682880503541223200,0.49922314453125,-14.73759937286377,-34.42839813232422,-22.826200485229492
1682880503551223000,0.50922314453125,-15.652599334716797,-34.196598052978516,-22.606599807739258
1682880503561212400,0.51921240234375,-14.481399536132812,-34.3307991027832,-22.50899887084961
1682880503571223300,0.529223388671875,-16.018600463867188,-34.623600006103516,-22.008800506591797
1682880503581223200,0.53922314453125,-15.457399368286133,-34.35519790649414,-22.094200134277344
1682880503591219500,0.549219482421875,-16.433399200439453,-34.39179992675781,-22.411399841308594
1682880503601213700,0.559213623046875,-15.920999526977539,-34.80659866333008,-22.43579864501953
1682880503611220000,0.569219970703125,-15.725799560546875,-34.45280075073242,-22.301599502563477
1682880503621223400,0.579223388671875,-15.04259967803955,-33.64759826660156,-22.47239875793457
1682880503631223300,0.589223388671875,-15.615999221801758,-34.12339782714844,-23.643600463867188
1682880503641207300,0.599207275390625,-15.274399757385254,-34.196598052978516,-23.338600158691406
1682880503651223000,0.60922314453125,-15.579400062561035,-33.51340103149414,-23.81439971923828
1682880503661223000,0.619222900390625,-15.628199577331543,-33.2693977355957,-24.216999053955078
1682880503671207400,0.62920751953125,-15.701399803161621,-33.09859848022461,-24.729398727416992
1682880503681223200,0.63922314453125,-15.664799690246582,-32.927799224853516,-24.619600296020508
1682880503691223000,0.64922314453125,-15.786799430847168,-32.927799224853516,-24.619600296020508
1682880503701223200,0.65922314453125,-17.323999404907227,-32.69599914550781,-23.655799865722656
1682880503711215000,0.669215087890625,-17.360599517822266,-32.878997802734375,-23.985198974609375
1682880503721219300,0.67921923828125,-17.87299919128418,-32.976600646972656,-23.777799606323242
1682880503731212800,0.689212890625,-18.324399948120117,-33.34259796142578,-23.802200317382812
1682880503741223200,0.69922314453125,-18.043800354003906,-32.52519989013672,-22.606599807739258
1682880503751212500,0.709212646484375,-17.946199417114258,-32.70819854736328,-23.13119888305664
1682880503761223000,0.719222900390625,-19.15399932861328,-33.17179870605469,-23.057998657226562
1682880503771223000,0.72922314453125,-19.715200424194336,-32.91559982299805,-22.094200134277344
1682880503781212700,0.739212646484375,-19.654199600219727,-32.232398986816406,-23.20439910888672
1682880503791223000,0.74922314453125,-19.81279945373535,-32.41539764404297,-23.423999786376953
1682880503801223400,0.759223388671875,-20.032400131225586,-31.80539894104004,-22.8627986907959
1682880503811221200,0.76922119140625,-20.752199172973633,-31.73219871520996,-22.447999954223633
1682880503821223000,0.779222900390625,-20.727800369262695,-30.707399368286133,-23.423999786376953
1682880503831212800,0.789212890625,-21.728199005126953,-30.390199661254883,-24.034000396728516
1682880503841223400,0.799223388671875,-21.54520034790039,-30.658599853515625,-24.363399505615234
1682880503851223600,0.8092236328125,-21.923398971557617,-30.243799209594727,-24.643999099731445
1682880503861223200,0.81922314453125,-22.289400100708008,-30.243799209594727,-24.54640007019043
1682880503871223000,0.82922314453125,-21.679399490356445,-29.80459976196289,-25.351598739624023
1682880503881231600,0.839231689453125,-21.923398971557617,-29.81679916381836,-25.14419937133789
1682880503891223300,0.849223388671875,-22.4601993560791,-29.572799682617188,-25.656599044799805
1682880503901223000,0.859222900390625,-21.045000076293945,-29.18239974975586,-25.4247989654541
1682880503911217000,0.869216796875,-21.53299903869629,-29.292200088500977,-26.059200286865234
1682880503921211600,0.879211669921875,-20.84980010986328,-29.4385986328125,-25.754199981689453
1682880503931223300,0.889223388671875,-21.55739974975586,-28.86520004272461,-26.13239860534668
1682880503941212400,0.89921240234375,-21.55739974975586,-28.852998733520508,-25.924999237060547
1682880503951223300,0.909223388671875,-21.959999084472656,-29.048198699951172,-26.242198944091797
1682880503961223000,0.919222900390625,-21.87459945678711,-28.706600189208984,-26.327598571777344
1682880503971223000,0.92922314453125,-21.679399490356445,-28.340599060058594,-25.998199462890625
1682880503981223200,0.93922314453125,-20.093399047851562,-28.401599884033203,-27.047399520874023
1682880503991213000,0.949213134765625,-20.044599533081055,-27.706199645996094,-27.108400344848633
1682880504001223400,0.959223388671875,-18.51959991455078,-27.388999938964844,-26.77899932861328
1682880504011219500,0.969219482421875,-19.17840003967285,-27.681798934936523,-27.535400390625
1682880504021212700,0.979212646484375,-17.690000534057617,-27.035200119018555,-27.80379867553711
1682880504031212500,0.989212646484375,-18.617198944091797,-26.998600006103516,-29.060400009155273
1682880504041223200,0.99922314453125,-17.86079978942871,-26.4739990234375,-29.865598678588867
1682880504051212500,1.009212646484375,-17.90959930419922,-25.693199157714844,-30.13399887084961
1682880504061223000,1.019222900390625,-17.21419906616211,-25.754199981689453,-29.719200134277344
1682880504071212500,1.029212646484375,-18.970998764038086,-25.656599044799805,-31.061199188232422
1682880504081223000,1.039222900390625,-18.22679901123047,-25.53459930419922,-30.53660011291504
1682880504091223000,1.04922314453125,-18.092599868774414,-25.010000228881836,-30.609800338745117
1682880504101212700,1.059212646484375,-17.653400421142578,-25.16860008239746,-30.731800079345703
1682880504111223000,1.06922314453125,-17.994998931884766,-25.619998931884766,-30.75619888305664
1682880504121223200,1.07922314453125,-17.763198852539062,-25.607799530029297,-30.231599807739258
1682880504131212500,1.089212646484375,-18.15359878540039,-25.693199157714844,-29.926599502563477
1682880504141223700,1.0992236328125,-18.482999801635742,-25.10759925842285,-30.621999740600586
1682880504151215600,1.109215576171875,-17.921798706054688,-25.15639877319336,-29.47519874572754
1682880504161212400,1.11921240234375,-19.702999114990234,-26.095800399780273,-30.14620018005371
1682880504171223300,1.129223388671875,-18.397600173950195,-25.705398559570312,-30.024198532104492
1682880504181206300,1.139206298828125,-19.2637996673584,-25.302799224853516,-30.09739875793457
1682880504191223000,1.14922314453125,-19.84939956665039,-25.24180030822754,-30.51219940185547
1682880504201223000,1.159222900390625,-19.837200164794922,-25.24180030822754,-30.939199447631836
1682880504211218400,1.169218505859375,-19.84939956665039,-25.24180030822754,-30.7195987701416
1682880504221212700,1.179212646484375,-20.007999420166016,-24.887998580932617,-30.390199661254883
1682880504231223300,1.189223388671875,-20.86199951171875,-24.49759864807129,-31.19540023803711
1682880504241223000,1.199222900390625,-21.252399444580078,-24.070598602294922,-31.17099952697754
1682880504251223000,1.20922314453125,-20.9596004486084,-23.899799346923828,-31.585800170898438
1682880504261227800,1.219227783203125,-21.630599975585938,-23.22879981994629,-31.744400024414062
1682880504271223300,1.229223388671875,-21.715999603271484,-23.47279930114746,-31.03679847717285
1682880504281223400,1.239223388671875,-21.947799682617188,-22.960399627685547,-31.41499900817871
1682880504291212500,1.249212646484375,-22.313798904418945,-22.447999954223633,-30.963600158691406
1682880504301223000,1.259222900390625,-23.253198623657227,-22.301599502563477,-31.061199188232422
1682880504311212300,1.26921240234375,-23.558198928833008,-21.93560028076172,-29.987600326538086
1682880504321213000,1.279212890625,-24.070598602294922,-21.1914005279541,-31.305198669433594
1682880504331223300,1.289223388671875,-25.11979866027832,-20.53260040283203,-31.15880012512207
1682880504341213200,1.299213134765625,-25.583398818969727,-19.934799194335938,-31.12220001220703
1682880504351212300,1.30921240234375,-25.49799919128418,-19.068599700927734,-31.378398895263672
1682880504361212400,1.31921240234375,-25.680999755859375,-18.27560043334961,-30.80500030517578
1682880504371213000,1.329213134765625,-26.986398696899414,-17.702199935913086,-31.085599899291992
1682880504381223200,1.33922314453125,-26.718000411987305,-16.56760025024414,-30.914798736572266
1682880504391223000,1.34922314453125,-27.47439956665039,-15.725799560546875,-31.48819923400879
1682880504401223200,1.35922314453125,-28.023399353027344,-15.579400062561035,-32.31779861450195
1682880504411223000,1.36922314453125,-27.80379867553711,-14.188599586486816,-32.85459899902344
1682880504421214000,1.3792138671875,-28.42599868774414,-13.249199867248535,-32.48859786987305
1682880504431223300,1.389223388671875,-28.413799285888672,-11.785200119018555,-33.75740051269531
1682880504441223200,1.39922314453125,-28.14539909362793,-10.650599479675293,-33.684200286865234
1682880504451206100,1.4092060546875,-27.5231990814209,-9.174399375915527,-34.85540008544922
1682880504461223200,1.41922314453125,-27.681798934936523,-7.344399929046631,-34.84320068359375
1682880504471223300,1.429223388671875,-26.998600006103516,-6.124399662017822,-36.0265998840332
1682880504481212700,1.439212646484375,-26.229999542236328,-3.5013999938964844,-36.80739974975586
1682880504491223000,1.44922314453125,-25.302799224853516,-1.6469999551773071,-36.904998779296875
1682880504501223000,1.459222900390625,-25.1929988861084,-0.15860000252723694,-36.81959915161133
1682880504511223000,1.46922314453125,-23.899799346923828,1.073599934577942,-37.79560089111328
1682880504521223200,1.47922314453125,-24.16819953918457,2.452199935913086,-38.3323974609375
1682880504531217200,1.489217041015625,-22.960399627685547,3.4526000022888184,-38.173797607421875
1682880504541222700,1.49922265625,-22.045398712158203,4.160200119018555,-38.869197845458984
1682880504551219200,1.50921923828125,-21.715999603271484,5.575399875640869,-38.46659851074219
1682880504561212400,1.51921240234375,-20.813199996948242,6.295199871063232,-38.94239807128906
1682880504571223000,1.52922314453125,-20.117799758911133,7.088200092315674,-39.52799987792969
1682880504581223200,1.53922314453125,-19.81279945373535,7.881199836730957,-39.36940002441406
1682880504591212500,1.549212646484375,-19.410200119018555,9.12559986114502,-39.08879852294922
1682880504601223200,1.55922314453125,-18.092599868774414,10.028399467468262,-39.357200622558594
1682880504611209500,1.56920947265625,-17.921798706054688,10.199199676513672,-39.552398681640625
1682880504621223000,1.579222900390625,-17.445999145507812,11.175199508666992,-39.601200103759766
1682880504631223300,1.589223388671875,-16.89699935913086,11.980400085449219,-39.235198974609375
1682880504641213000,1.599212890625,-16.079599380493164,12.980799674987793,-38.234798431396484
1682880504651222800,1.609222900390625,-14.90839958190918,13.798199653625488,-38.71059799194336
1682880504661229800,1.619229736328125,-14.164199829101562,14.859600067138672,-39.07659912109375
1682880504671223300,1.629223388671875,-13.920199394226074,15.39639949798584,-38.72279739379883
1682880504681223200,1.63922314453125,-12.22439956665039,15.981999397277832,-37.856597900390625
1682880504691234300,1.649234375,-11.163000106811523,16.88479995727539,-38.01519775390625
1682880504701223400,1.659223388671875,-11.163000106811523,16.88479995727539,-38.01519775390625
1682880504711223600,1.6692236328125,-9.662400245666504,17.104398727416992,-37.905399322509766
1682880504721212400,1.67921240234375,-9.44279956817627,18.092599868774414,-36.904998779296875
1682880504731223000,1.68922314453125,-8.308199882507324,18.299999237060547,-36.892799377441406
1682880504741223000,1.699222900390625,-8.479000091552734,18.55620002746582,-37.08799743652344
1682880504751212500,1.709212646484375,-7.637199878692627,19.117399215698242,-36.526798248291016
1682880504761206500,1.71920654296875,-6.5513997077941895,19.056400299072266,-36.843997955322266
1682880504771234600,1.729234619140625,-6.673399925231934,19.58099937438965,-36.709800720214844
1682880504781226000,1.73922607421875,-6.404999732971191,19.239398956298828,-36.41699981689453
1682880504791212300,1.74921240234375,-5.380199909210205,19.446800231933594,-36.51459884643555
1682880504801212700,1.759212646484375,-5.062999725341797,19.28820037841797,-36.319400787353516
1682880504811223300,1.769223388671875,-3.9039998054504395,19.58099937438965,-36.30719757080078
1682880504821223200,1.77922314453125,-3.9284000396728516,19.4955997467041,-35.98999786376953
1682880504831212800,1.789212890625,-3.6111998558044434,19.336999893188477,-35.7947998046875
1682880504841223000,1.799222900390625,-3.2207999229431152,19.959199905395508,-35.75819778442383
1682880504851223300,1.809223388671875,-2.537600040435791,19.715200424194336,-36.1973991394043
1682880504861212400,1.81921240234375,-1.1589999198913574,19.934799194335938,-35.86800003051758
1682880504871222800,1.829222900390625,-2.061800003051758,19.739599227905273,-35.67279815673828
1682880504881209000,1.839208984375,-1.0247999429702759,20.020198822021484,-35.965599060058594
1682880504891223000,1.84922314453125,-1.207800030708313,20.288599014282227,-35.53860092163086
1682880504901223000,1.859222900390625,-0.7685999870300293,20.1299991607666,-35.55080032348633
1682880504911212500,1.869212646484375,0.3659999966621399,20.337400436401367,-35.22140121459961
1682880504921223400,1.879223388671875,1.5981999635696411,20.48379898071289,-34.586997985839844
1682880504931223300,1.889223388671875,2.830399990081787,20.605798721313477,-34.269798278808594
1682880504941223200,1.89922314453125,3.6843998432159424,20.105600357055664,-34.306400299072266
1682880504951223300,1.909223388671875,4.574999809265137,19.78839874267578,-34.635799407958984
1682880504961220000,1.91922021484375,6.343999862670898,19.2637996673584,-32.69599914550781
1682880504971223300,1.929223388671875,6.514800071716309,19.434598922729492,-32.89120101928711
1682880504981220000,1.93922021484375,7.722599983215332,19.385799407958984,-33.318199157714844
1682880504991212500,1.949212646484375,8.454599380493164,18.983200073242188,-32.610599517822266
1682880505001223200,1.95922314453125,9.528200149536133,18.922199249267578,-32.8302001953125
1682880505011212500,1.969212646484375,8.820599555969238,18.458599090576172,-32.95219802856445
1682880505021212700,1.979212646484375,10.260199546813965,18.421998977661133,-32.96440124511719
1682880505031223300,1.989223388671875,9.808799743652344,17.641199111938477,-31.75659942626953
1682880505041217000,1.999217041015625,9.991799354553223,16.95800018310547,-31.47599983215332
1682880505051223000,2.00922314453125,9.589200019836426,16.762800216674805,-31.695598602294922
1682880505061223200,2.01922314453125,9.027999877929688,16.286998748779297,-33.196197509765625
1682880505071215000,2.029215087890625,8.442399978637695,15.725799560546875,-34.379600524902344
1682880505081223200,2.03922314453125,9.003600120544434,15.152400016784668,-33.049800872802734
1682880505091212500,2.049212646484375,9.381799697875977,14.627799987792969,-33.91600036621094
1682880505101212400,2.05921240234375,8.710800170898438,14.347199440002441,-33.940399169921875
1682880505111223000,2.06922314453125,8.91819953918457,13.639599800109863,-34.70899963378906
1682880505121223000,2.079222900390625,8.661999702453613,12.590399742126465,-34.562599182128906
1682880505131212500,2.089212646484375,8.893799781799316,11.980400085449219,-34.80659866333008
1682880505141209300,2.099209228515625,7.881199836730957,12.297599792480469,-35.001800537109375
1682880505151212500,2.109212646484375,7.612799644470215,12.09019947052002,-36.05099868774414
1682880505161223200,2.11922314453125,7.551799774169922,11.821800231933594,-36.07539749145508
1682880505171223000,2.12922314453125,6.112199783325195,10.809199333190918,-36.75859832763672
1682880505181212400,2.13921240234375,6.466000080108643,10.613999366760254,-38.125
1682880505191212500,2.149212646484375,5.282599925994873,10.235799789428711,-38.14939880371094
1682880505201223000,2.159222900390625,5.184999942779541,9.906399726867676,-37.222198486328125
1682880505211223000,2.16922314453125,3.2330000400543213,8.686399459838867,-38.344600677490234
1682880505221223200,2.17922314453125,3.4282000064849854,7.990999698638916,-38.69839859008789
1682880505231208200,2.189208251953125,1.9642000198364258,7.417599678039551,-38.72279739379883
1682880505241212400,2.19921240234375,1.3664000034332275,7.393199920654297,-39.040000915527344
1682880505251223600,2.2092236328125,1.1589999198913574,6.941799640655518,-39.90620040893555
1682880505261212700,2.219212646484375,0.9393999576568604,7.112599849700928,-39.27180099487305
1682880505271223000,2.22922314453125,1.9519999027252197,5.758399963378906,-39.357200622558594
1682880505281212700,2.239212646484375,0.9393999576568604,6.5879998207092285,-39.40599822998047
1682880505291213800,2.2492138671875,1.305400013923645,7.124799728393555,-39.27180099487305
1682880505301223400,2.259223388671875,2.013000011444092,7.600599765777588,-38.72279739379883
1682880505311212500,2.269212646484375,1.9886000156402588,7.405399799346924,-39.674400329589844
1682880505321223200,2.27922314453125,1.500599980354309,7.490799903869629,-38.83259963989258
1682880505331223300,2.289223388671875,1.6957999467849731,7.332200050354004,-38.62519836425781
1682880505341220900,2.299220947265625,1.7933999300003052,8.198399543762207,-38.89360046386719
1682880505351223600,2.3092236328125,1.6591999530792236,8.100799560546875,-39.21080017089844
1682880505361223200,2.31922314453125,0.6466000080108643,7.881199836730957,-39.84519958496094
1682880505371223000,2.32922314453125,1.0247999429702759,7.466399669647217,-39.34499740600586
1682880505381214000,2.3392138671875,-1.1345999240875244,7.051599979400635,-39.25959777832031
1682880505391223000,2.34922314453125,-0.8295999765396118,7.856800079345703,-38.795997619628906
1682880505401212700,2.359212646484375,-1.329800009727478,8.271599769592285,-38.979000091552734
1682880505411223300,2.369223388671875,-2.964599847793579,8.052000045776367,-38.78379821777344
1682880505421224000,2.379223876953125,-2.952399969100952,9.625800132751465,-38.795997619628906
1682880505431223000,2.38922314453125,-3.5379998683929443,10.223599433898926,-38.649600982666016
1682880505441223200,2.39922314453125,-3.6111998558044434,10.90679931640625,-38.82040023803711
1682880505451212500,2.409212646484375,-4.184599876403809,12.651399612426758,-38.07619857788086
1682880505461223200,2.41922314453125,-4.538399696350098,12.639200210571289,-38.295799255371094
1682880505471212500,2.429212646484375,-6.148799896240234,13.554200172424316,-37.71019744873047
1682880505481212700,2.439212646484375,-6.575799942016602,13.383399963378906,-37.19779968261719
1682880505491223000,2.44922314453125,-8.80840015411377,14.188599586486816,-36.8317985534668
1682880505501217300,2.45921728515625,-9.174399375915527,15.237799644470215,-36.13639831542969
1682880505511224000,2.46922412109375,-9.89419937133789,15.310999870300293,-36.12419891357422
1682880505521223000,2.479222900390625,-10.833600044250488,16.50659942626953,-35.526397705078125
1682880505531212800,2.489212890625,-10.504199981689453,16.872600555419922,-35.40439987182617
1682880505541223000,2.499222900390625,-10.955599784851074,17.665599822998047,-34.001399993896484
1682880505551223000,2.50922314453125,-11.516799926757812,18.87339973449707,-33.91600036621094
1682880505561212700,2.519212646484375,-9.869799613952637,20.23979949951172,-33.22060012817383
1682880505571223300,2.529223388671875,-10.650599479675293,21.105998992919922,-32.74480056762695
1682880505581212400,2.53921240234375,-11.528999328613281,21.52079963684082,-32.08599853515625
1682880505591223000,2.54922314453125,-10.857999801635742,22.447999954223633,-30.670799255371094
1682880505601213200,2.559213134765625,-10.077199935913086,22.740798950195312,-30.036399841308594
1682880505611214000,2.569214111328125,-10.199199676513672,23.362998962402344,-29.048198699951172
1682880505621223400,2.579223388671875,-10.369999885559082,24.034000396728516,-30.15839958190918
1682880505631223000,2.58922314453125,-9.015799522399902,24.595199584960938,-30.43899917602539
1682880505641223200,2.59922314453125,-7.69819974899292,25.18079948425293,-29.47519874572754
1682880505651223000,2.60922314453125,-7.319999694824219,25.18079948425293,-29.999799728393555
1682880505661223200,2.61922314453125,-7.051599979400635,25.278400421142578,-29.987600326538086
1682880505671213600,2.629213623046875,-6.673399925231934,25.90060043334961,-29.633798599243164
1682880505681226500,2.6392265625,-6.246399879455566,26.291000366210938,-28.46259880065918
1682880505691209000,2.649208984375,-6.5879998207092285,28.047800064086914,-27.20599937438965
1682880505701223200,2.65922314453125,-6.3927998542785645,28.413799285888672,-26.242198944091797
1682880505711223000,2.66922314453125,-7.161399841308594,29.377599716186523,-25.351598739624023
1682880505721212700,2.679212646484375,-7.441999912261963,29.81679916381836,-24.277999877929688
1682880505731223600,2.6892236328125,-7.637199878692627,30.51219940185547,-24.54640007019043
1682880505741223400,2.699223388671875,-7.234600067138672,30.707399368286133,-24.021799087524414
1682880505751223000,2.70922314453125,-8.43019962310791,30.329198837280273,-23.5093994140625
1682880505761212700,2.719212646484375,-8.613200187683105,30.585399627685547,-23.49720001220703
1682880505771216000,2.7292158203125,-7.112599849700928,30.80500030517578,-23.16779899597168
1682880505781223400,2.739223388671875,-7.13700008392334,30.82939910888672,-22.130800247192383
1682880505791223000,2.74922314453125,-7.368799686431885,31.43939971923828,-21.569599151611328
1682880505801213200,2.759213134765625,-7.527400016784668,30.731800079345703,-21.8135986328125
1682880505811223000,2.76922314453125,-7.429800033569336,31.183198928833008,-21.16699981689453
1682880505821223000,2.779222900390625,-7.978799819946289,31.43939971923828,-21.045000076293945
1682880505831205400,2.789205322265625,-7.258999824523926,31.561399459838867,-19.995800018310547
1682880505841223400,2.799223388671875,-7.929999828338623,31.927398681640625,-18.507400512695312
1682880505851219000,2.809218994140625,-7.356599807739258,32.39099884033203,-17.53139877319336
1682880505861223200,2.81922314453125,-7.856800079345703,32.927799224853516,-16.56760025024414
1682880505871223000,2.82922314453125,-8.173999786376953,32.549598693847656,-17.421600341796875
1682880505881212400,2.83921240234375,-7.197999954223633,33.09859848022461,-17.287399291992188
1682880505891223000,2.84922314453125,-9.40619945526123,32.939998626708984,-17.702199935913086
1682880505901223000,2.859222900390625,-8.979199409484863,32.8057975769043,-16.677400588989258
1682880505911213800,2.8692138671875,-9.052399635314941,32.866798400878906,-17.812000274658203
1682880505921223200,2.87922314453125,-8.967000007629395,32.15919876098633,-18.17799949645996
1682880505931223300,2.889223388671875,-8.539999961853027,32.43980026245117,-18.15359878540039
1682880505941212700,2.899212646484375,-9.845399856567383,31.939599990844727,-19.129600524902344
1682880505951223300,2.909223388671875,-8.80840015411377,32.232398986816406,-19.105199813842773
1682880505961230000,2.91922998046875,-9.479399681091309,31.951799392700195,-19.129600524902344
1682880505971228200,2.929228271484375,-9.552599906921387,32.22019958496094,-18.482999801635742
1682880505981207300,2.939207275390625,-9.308599472045898,32.232398986816406,-18.373199462890625
1682880505991212800,2.949212890625,-9.040200233459473,32.4276008605957,-17.946199417114258
1682880506001223000,2.959222900390625,-8.576600074768066,32.878997802734375,-17.397199630737305
1682880506011223300,2.969223388671875,-8.442399978637695,33.51340103149414,-16.836000442504883
1682880506021219800,2.9792197265625,-8.442399978637695,33.51340103149414,-16.945798873901367
1682880506031223000,2.98922314453125,-8.869400024414062,33.75740051269531,-16.713998794555664
1682880506041212700,2.999212646484375,-8.381400108337402,33.879398345947266,-15.7746000289917
1682880506051223300,3.009223388671875,-7.685999870300293,34.35519790649414,-14.90839958190918
1682880506061223400,3.019223388671875,-7.051599979400635,34.45280075073242,-15.115799903869629
1682880506071212300,3.02921240234375,-6.173199653625488,34.684600830078125,-14.054399490356445
1682880506081223200,3.03922314453125,-5.636399745941162,34.97739791870117,-13.200399398803711
1682880506091222800,3.049222900390625,-5.209399700164795,35.34339904785156,-12.553799629211426
1682880506101212400,3.05921240234375,-5.245999813079834,35.17259979248047,-12.773399353027344
1682880506111223300,3.069223388671875,-4.330999851226807,35.46540069580078,-12.553799629211426
1682880506121211100,3.079211181640625,-3.5623998641967773,34.830997467041016,-10.601799964904785
1682880506131235800,3.08923583984375,-3.025599956512451,35.013999938964844,-11.016599655151367
1682880506141223400,3.099223388671875,-3.7941999435424805,35.75819778442383,-11.797399520874023
1682880506151211800,3.109211669921875,-3.171999931335449,35.86800003051758,-11.175199508666992
1682880506161223400,3.119223388671875,-3.5867998600006104,35.587398529052734,-11.919400215148926
1682880506171223000,3.12922314453125,-3.049999952316284,35.34339904785156,-11.626599311828613
1682880506181223200,3.13922314453125,-4.477399826049805,36.42919921875,-11.760799407958984
1682880506191223000,3.14922314453125,-4.135799884796143,36.35599899291992,-11.553400039672852
1682880506201223000,3.159222900390625,-4.135799884796143,36.35599899291992,-11.553400039672852
1682880506211212800,3.169212890625,-4.56279993057251,37.13679885864258,-11.406999588012695
1682880506221215200,3.17921533203125,-4.465199947357178,36.636600494384766,-10.284600257873535
1682880506231207000,3.18920703125,-5.807199954986572,36.599998474121094,-10.284600257873535
1682880506241223200,3.19922314453125,-4.916599750518799,36.79520034790039,-10.4798002243042
1682880506251223000,3.20922314453125,-5.563199996948242,36.599998474121094,-10.284600257873535
1682880506261213000,3.219212890625,-6.136600017547607,36.75859832763672,-10.162599563598633
1682880506271223300,3.229223388671875,-5.075200080871582,36.61219787597656,-10.601799964904785
1682880506281223200,3.23922314453125,-5.697400093078613,36.50239944458008,-10.601799964904785
1682880506291230000,3.24922998046875,-5.904799938201904,36.67319869995117,-10.589599609375
1682880506301223000,3.259222900390625,-5.624199867248535,36.44139862060547,-9.772199630737305
1682880506311222500,3.269222412109375,-4.221199989318848,36.319400787353516,-8.94260025024414
1682880506321223200,3.27922314453125,-5.148399829864502,36.35599899291992,-10.089399337768555
1682880506331223600,3.2892236328125,-6.124399662017822,36.331600189208984,-10.199199676513672
1682880506341212700,3.299212646484375,-4.379799842834473,36.56340026855469,-9.662400245666504
1682880506351219000,3.309218994140625,-5.184999942779541,36.17300033569336,-10.41879940032959
1682880506361223200,3.31922314453125,-5.2947998046875,36.17300033569336,-10.626199722290039
1682880506371208000,3.3292080078125,-4.855599880218506,36.538997650146484,-10.077199935913086
1682880506381223000,3.339222900390625,-4.989799976348877,35.91679763793945,-10.748199462890625
1682880506391213000,3.349213134765625,-4.550600051879883,36.282798767089844,-10.406599998474121
1682880506401223200,3.35922314453125,-4.721399784088135,36.002201080322266,-11.053199768066406
1682880506411223300,3.369223388671875,-4.160200119018555,35.843597412109375,-11.065400123596191
1682880506421232000,3.379232177734375,-4.843400001525879,36.42919921875,-11.651000022888184
1682880506431223300,3.389223388671875,-5.282599925994873,35.636199951171875,-11.382599830627441
1682880506441222100,3.39922216796875,-4.379799842834473,35.81919860839844,-11.90719985961914
1682880506451223000,3.40922314453125,-4.599400043487549,35.47760009765625,-11.394800186157227
1682880506461223200,3.41922314453125,-4.0015997886657715,35.92900085449219,-11.577799797058105
1682880506471223000,3.42922314453125,-4.306600093841553,36.07539749145508,-12.407400131225586
1682880506481212700,3.439212646484375,-4.538399696350098,35.636199951171875,-12.334199905395508
1682880506491223000,3.44922314453125,-4.062600135803223,36.07539749145508,-12.517199516296387
1682880506501212400,3.45921240234375,-4.782400131225586,35.624000549316406,-12.22439956665039
1682880506511223300,3.469223388671875,-4.0991997718811035,35.47760009765625,-12.029199600219727
1682880506521223200,3.47922314453125,-3.3306000232696533,35.68499755859375,-11.699799537658691
1682880506531212800,3.489212890625,-3.6355998516082764,35.831398010253906,-12.736800193786621
1682880506541223400,3.499223388671875,-5.062999725341797,35.86800003051758,-13.151599884033203
1682880506551223000,3.50922314453125,-3.8673999309539795,35.81919860839844,-12.944199562072754
1682880506561223200,3.51922314453125,-4.111400127410889,36.331600189208984,-12.809999465942383
1682880506571223000,3.52922314453125,-4.672599792480469,35.953399658203125,-13.456600189208984
1682880506581223000,3.539222900390625,-3.7941999435424805,35.648399353027344,-12.858799934387207
1682880506591223300,3.549223388671875,-3.7941999435424805,35.648399353027344,-12.858799934387207
1682880506601212400,3.55921240234375,-3.4647998809814453,36.002201080322266,-12.834400177001953
1682880506611207200,3.569207275390625,-3.025599956512451,36.36819839477539,-12.60260009765625
1682880506621223200,3.57922314453125,-3.9649999141693115,36.002201080322266,-12.419599533081055
1682880506631223000,3.58922314453125,-3.3915998935699463,35.941200256347656,-11.577799797058105
1682880506641212200,3.599212158203125,-3.7331998348236084,36.0265998840332,-11.577799797058105
1682880506651223000,3.60922314453125,-3.8307998180389404,36.09980010986328,-11.785200119018555
1682880506661215700,3.6192158203125,-3.2086000442504883,36.209598541259766,-11.675399780273438
1682880506671223000,3.62922314453125,-3.5013999938964844,35.941200256347656,-11.894999504089355
1682880506681221600,3.6392216796875,-4.111400127410889,36.55120086669922,-10.711599349975586
1682880506691208400,3.64920849609375,-3.3183999061584473,36.843997955322266,-10.589599609375
1682880506701223000,3.659222900390625,-2.842599868774414,36.331600189208984,-10.516399383544922
1682880506711223300,3.669223388671875,-2.586400032043457,36.331600189208984,-10.833600044250488
1682880506721223200,3.67922314453125,-2.269199848175049,36.282798767089844,-9.78439998626709
1682880506731223000,3.68922314453125,-2.659600019454956,36.709800720214844,-9.345199584960938
1682880506741229600,3.6992294921875,-2.0983998775482178,36.45359802246094,-9.881999969482422
1682880506751213000,3.709213134765625,-2.732800006866455,36.34379959106445,-9.991799354553223
1682880506761223400,3.719223388671875,-2.940199851989746,36.526798248291016,-9.454999923706055
1682880506771212800,3.729212890625,-3.4403998851776123,36.51459884643555,-9.149999618530273
1682880506781212400,3.73921240234375,-2.586400032043457,36.538997650146484,-9.149999618530273
1682880506791223000,3.74922314453125,-2.500999927520752,36.892799377441406,-9.223199844360352
1682880506801213200,3.759213134765625,-2.769399881362915,36.69759750366211,-9.869799613952637
1682880506811223300,3.769223388671875,-2.500999927520752,36.78300094604492,-9.967399597167969
1682880506821213200,3.779213134765625,-2.061800003051758,36.526798248291016,-10.613999366760254
1682880506831223000,3.78922314453125,-2.256999969482422,36.270599365234375,-10.309000015258789
1682880506841223000,3.799222900390625,-3.2207999229431152,36.12419891357422,-11.785200119018555
1682880506851223800,3.809223876953125,-1.402999997138977,36.599998474121094,-12.492799758911133
1682880506861223400,3.819223388671875,-1.42739999294281,35.892398834228516,-13.053999900817871
1682880506871223600,3.8292236328125,-1.5859999656677246,36.12419891357422,-14.090999603271484
1682880506881205000,3.839205078125,-1.1345999240875244,35.85580062866211,-15.457399368286133
1682880506891223000,3.84922314453125,-0.3659999966621399,35.41659927368164,-16.433399200439453
1682880506901212700,3.859212646484375,-0.4513999819755554,34.42839813232422,-17.750999450683594
1682880506911217000,3.869216796875,0.14640000462532043,34.245399475097656,-19.324800491333008
1682880506921223200,3.87922314453125,-0.15860000252723694,32.70819854736328,-21.618398666381836
1682880506931205000,3.889205078125,-0.3050000071525574,32.51300048828125,-22.4601993560791
1682880506941223200,3.89922314453125,0.024399999529123306,31.707799911499023,-24.290199279785156
1682880506951212500,3.909212646484375,-0.7807999849319458,31.317399978637695,-24.619600296020508
1682880506961212700,3.919212646484375,-1.524999976158142,30.682998657226562,-25.18079948425293
1682880506971210000,3.9292099609375,-3.3794000148773193,29.902198791503906,-26.376399993896484
1682880506981212700,3.939212646484375,-3.5501999855041504,30.670799255371094,-26.644800186157227
1682880506991223000,3.94922314453125,-4.416399955749512,30.560998916625977,-26.75459861755371
1682880507001217800,3.9592177734375,-5.343599796295166,30.17059898376465,-27.49880027770996
1682880507011224600,3.969224609375,-6.856400012969971,30.268199920654297,-28.743200302124023
1682880507021223200,3.97922314453125,-6.4415998458862305,30.036399841308594,-28.340599060058594
1682880507031223300,3.989223388671875,-7.966599941253662,30.243799209594727,-28.218599319458008
1682880507041222700,3.99922265625,-7.588399887084961,30.768400192260742,-28.926198959350586
1682880507051212500,4.009212646484375,-7.673799991607666,29.902198791503906,-28.76759910583496
1682880507061223000,4.019222900390625,-8.503399848937988,29.951000213623047,-29.18239974975586
1682880507071212800,4.029212890625,-6.734399795532227,29.74359893798828,-29.097000122070312
1682880507081212400,4.03921240234375,-6.6489996910095215,29.56060028076172,-29.52400016784668
1682880507091223000,4.04922314453125,-6.819799900054932,28.76759910583496,-30.09739875793457
1682880507101223200,4.05922314453125,-8.2593994140625,28.279600143432617,-30.53660011291504
1682880507111223000,4.06922314453125,-7.478600025177002,27.5231990814209,-30.378000259399414
1682880507121235500,4.0792353515625,-9.46720027923584,28.340599060058594,-30.109600067138672
1682880507131224300,4.089224365234375,-8.95479965209961,27.913599014282227,-30.353599548339844
1682880507141209000,4.099208984375,-9.015799522399902,27.54759979248047,-31.305198669433594
1682880507151212800,4.109212890625,-8.649800300598145,27.13279914855957,-30.609800338745117
1682880507161223200,4.11922314453125,-8.893799781799316,28.1697998046875,-30.646398544311523
1682880507171223000,4.12922314453125,-8.991399765014648,28.255199432373047,-30.646398544311523
1682880507181212700,4.139212646484375,-8.857199668884277,28.243000030517578,-31.378398895263672
1682880507191223000,4.14922314453125,-9.235400199890137,28.670000076293945,-31.1343994140625
1682880507201225000,4.159224853515625,-8.039799690246582,28.621198654174805,-31.244199752807617
1682880507211223000,4.16922314453125,-7.45419979095459,28.45039939880371,-31.890798568725586
1682880507221223200,4.17922314453125,-7.13700008392334,28.279600143432617,-31.902999877929688
1682880507231212500,4.189212646484375,-5.721799850463867,28.584598541259766,-32.305599212646484
1682880507241223400,4.199223388671875,-4.757999897003174,28.621198654174805,-31.878599166870117
1682880507251223300,4.209223388671875,-6.185400009155273,28.121000289916992,-32.53739929199219
1682880507261223200,4.21922314453125,-4.513999938964844,28.621198654174805,-31.988399505615234
1682880507271223300,4.229223388671875,-5.819399833679199,28.670000076293945,-32.19580078125
1682880507281212700,4.239212646484375,-6.3927998542785645,28.291799545288086,-32.52519989013672
1682880507291212800,4.249212890625,-6.831999778747559,28.45039939880371,-32.72039794921875
1682880507301213000,4.259212890625,-7.368799686431885,28.267398834228516,-32.52519989013672
1682880507311206700,4.26920654296875,-7.222399711608887,28.352800369262695,-32.41539764404297
1682880507321223200,4.27922314453125,-8.125200271606445,28.1697998046875,-31.902999877929688
1682880507331223000,4.28922314453125,-8.039799690246582,28.51140022277832,-32.19580078125
1682880507341214200,4.299214111328125,-8.613200187683105,28.14539909362793,-32.31779861450195
1682880507351212500,4.309212646484375,-9.101200103759766,28.13319969177246,-32.31779861450195
1682880507361223400,4.319223388671875,-8.661999702453613,28.49919891357422,-31.878599166870117
1682880507371223300,4.329223388671875,-8.625399589538574,28.572399139404297,-32.4031982421875
1682880507381223000,4.339222900390625,-9.29640007019043,28.291799545288086,-32.51300048828125
1682880507391220000,4.349219970703125,-8.186200141906738,28.84079933166504,-32.8057975769043
1682880507401223400,4.359223388671875,-8.186200141906738,28.84079933166504,-32.8057975769043
1682880507411223300,4.369223388671875,-6.929599761962891,29.060400009155273,-32.89120101928711
1682880507421212400,4.37921240234375,-5.026400089263916,28.42599868774414,-32.622798919677734
1682880507431223300,4.389223388671875,-5.624199867248535,28.913999557495117,-33.01319885253906
1682880507441223200,4.39922314453125,-4.745800018310547,28.49919891357422,-33.354801177978516
1682880507451212800,4.409212890625,-3.2451999187469482,28.730998992919922,-33.02539825439453
1682880507461223400,4.419223388671875,-1.9153999090194702,28.670000076293945,-33.562198638916016
1682880507471223600,4.4292236328125,-1.8543999195098877,28.938400268554688,-33.54999923706055
1682880507481223200,4.43922314453125,-1.3907999992370605,28.86520004272461,-33.34259796142578
1682880507491223000,4.44922314453125,0.024399999529123306,28.730998992919922,-33.244998931884766
1682880507501208300,4.459208251953125,0.3416000008583069,28.999399185180664,-33.75740051269531
1682880507511223600,4.4692236328125,-0.29280000925064087,28.364999771118164,-33.684200286865234
1682880507521223400,4.479223388671875,0.18299999833106995,27.86479949951172,-33.40359878540039
1682880507531223300,4.489223388671875,0.8417999744415283,28.584598541259766,-33.464599609375
1682880507541213000,4.499212890625,1.7201999425888062,27.742799758911133,-32.89120101928711
1682880507551212800,4.509212890625,1.2444000244140625,28.243000030517578,-33.39139938354492
1682880507561213000,4.519212890625,2.0983998775482178,27.7549991607666,-33.41579818725586
1682880507571223300,4.529223388671875,2.988999843597412,27.535400390625,-32.5984001159668
1682880507581212400,4.53921240234375,2.293599843978882,27.16939926147461,-32.4031982421875
1682880507591212300,4.54921240234375,3.5257999897003174,26.766799926757812,-32.232398986816406
1682880507601223000,4.559222900390625,3.8185999393463135,26.522798538208008,-31.82979965209961
1682880507611207200,4.569207275390625,5.514400005340576,27.1205997467041,-30.85379981994629
1682880507621223400,4.579223388671875,5.672999858856201,26.77899932861328,-30.975799560546875
1682880507631223000,4.58922314453125,8.003199577331543,25.888399124145508,-30.82939910888672
1682880507641223200,4.59922314453125,7.856800079345703,25.80299949645996,-30.731800079345703
1682880507651223000,4.60922314453125,9.186599731445312,25.85179901123047,-30.207199096679688
1682880507661226500,4.6192265625,10.4798002243042,26.242198944091797,-29.658199310302734
1682880507671223300,4.629223388671875,10.748199462890625,25.912799835205078,-29.377599716186523
1682880507681210600,4.639210693359375,10.650599479675293,25.473600387573242,-29.194599151611328
1682880507691212500,4.649212646484375,10.613999366760254,25.400400161743164,-28.877399444580078
1682880507701223200,4.65922314453125,10.284600257873535,25.46139907836914,-29.609399795532227
1682880507711223000,4.66922314453125,9.711199760437012,25.51019859313965,-30.43899917602539
1682880507721217500,4.679217529296875,9.25979995727539,25.680999755859375,-30.011999130249023
1682880507731223600,4.6892236328125,8.076399803161621,25.1929988861084,-30.658599853515625
1682880507741213700,4.699213623046875,7.771399974822998,24.912399291992188,-31.09779930114746
1682880507751223000,4.70922314453125,6.6489996910095215,25.21739959716797,-31.707799911499023
1682880507761223200,4.71922314453125,6.710000038146973,24.961198806762695,-31.51259994506836
1682880507771212500,4.729212646484375,5.502200126647949,25.022199630737305,-31.402799606323242
1682880507781226800,4.739226806640625,5.770599842071533,24.692798614501953,-30.682998657226562
1682880507791223000,4.74922314453125,5.733999729156494,24.924598693847656,-31.81760025024414
1682880507801223200,4.75922314453125,5.148399829864502,24.47319984436035,-31.951799392700195
1682880507811212500,4.769212646484375,5.306999683380127,24.13159942626953,-32.07379913330078
1682880507821213400,4.77921337890625,5.733999729156494,24.399999618530273,-31.854198455810547
1682880507831221200,4.78922119140625,5.733999729156494,23.875398635864258,-32.19580078125
1682880507841223200,4.79922314453125,6.417200088500977,24.680599212646484,-32.049400329589844
1682880507851204000,4.8092041015625,6.185400009155273,23.716798782348633,-32.31779861450195
1682880507861223200,4.81922314453125,6.002399921417236,23.972999572753906,-31.988399505615234
1682880507871223300,4.829223388671875,6.4903998374938965,23.460599899291992,-32.43980026245117
1682880507881213000,4.839212890625,8.11299991607666,23.692399978637695,-32.11040115356445
1682880507891223300,4.849223388671875,8.491199493408203,23.265399932861328,-32.13479995727539
1682880507901223000,4.859222900390625,10.309000015258789,22.81399917602539,-31.43939971923828
1682880507911223000,4.86922314453125,11.43139934539795,23.021400451660156,-30.902599334716797
1682880507921223200,4.87922314453125,13.041799545288086,22.630998611450195,-31.14659881591797
1682880507931214300,4.88921435546875,13.700599670410156,22.399200439453125,-30.634199142456055
1682880507941223400,4.899223388671875,14.896200180053711,21.923398971557617,-30.048599243164062
1682880507951223600,4.9092236328125,16.030799865722656,22.15519905090332,-29.40199851989746
1682880507961206500,4.91920654296875,15.823399543762207,21.374399185180664,-28.926198959350586
1682880507971223000,4.92922314453125,17.336198806762695,21.16699981689453,-27.998998641967773
1682880507981223200,4.93922314453125,18.287799835205078,21.21579933166504,-27.267000198364258
1682880507991212500,4.949212646484375,19.666399002075195,20.92300033569336,-26.766799926757812
1682880508001223400,4.959223388671875,21.093799591064453,20.361799240112305,-26.49839973449707
1682880508011220700,4.969220703125,22.081998825073242,20.593599319458008,-25.131999969482422
1682880508021223200,4.97922314453125,22.386999130249023,19.910400390625,-24.643999099731445
1682880508031218400,4.989218505859375,23.338600158691406,19.434598922729492,-23.631399154663086
1682880508041212700,4.999212646484375,24.19260025024414,19.47119903564453,-23.314199447631836
1682880508051223300,5.009223388671875,23.86319923400879,18.690399169921875,-22.630998611450195
1682880508061223000,5.019222900390625,24.936800003051758,19.16619873046875,-22.289400100708008
1682880508071212500,5.029212646484375,25.86400032043457,19.129600524902344,-21.14259910583496
1682880508081223200,5.03922314453125,26.595998764038086,18.726999282836914,-20.23979949951172
1682880508091212800,5.049212890625,26.974199295043945,18.31220054626465,-20.154399871826172
1682880508101223400,5.059223388671875,26.75459861755371,18.49519920349121,-18.995399475097656
1682880508111223300,5.069223388671875,27.083999633789062,18.434200286865234,-18.263399124145508
1682880508121223000,5.079222900390625,27.669599533081055,18.470800399780273,-17.22640037536621
1682880508131223300,5.089223388671875,27.669599533081055,18.470800399780273,-17.22640037536621
1682880508141223200,5.09922314453125,29.74359893798828,18.751399993896484,-15.22559928894043
1682880508151212800,5.109212890625,28.621198654174805,18.6294002532959,-14.90839958190918
1682880508161223700,5.1192236328125,28.79199981689453,18.81239891052246,-15.115799903869629
1682880508171223600,5.1292236328125,28.535799026489258,18.81239891052246,-14.481399536132812
1682880508181223200,5.13922314453125,29.56060028076172,18.59280014038086,-14.078800201416016
1682880508191223000,5.14922314453125,27.23040008544922,18.94659996032715,-14.371600151062012
1682880508201212700,5.159212646484375,28.49919891357422,18.6294002532959,-15.127999305725098
1682880508211230000,5.16922998046875,27.86479949951172,19.58099937438965,-14.542399406433105
1682880508221223400,5.179223388671875,28.13319969177246,19.56879997253418,-15.384200096130371
1682880508231213000,5.189213134765625,27.681798934936523,19.20279884338379,-15.713600158691406
1682880508241223200,5.19922314453125,27.15719985961914,19.007598876953125,-15.933199882507324
1682880508251223300,5.209223388671875,27.5231990814209,19.971399307250977,-16.079599380493164
1682880508261214700,5.219214599609375,27.388999938964844,19.86159896850586,-17.031200408935547
1682880508271223600,5.2292236328125,26.43739891052246,19.92259979248047,-17.128799438476562
1682880508281220900,5.239220947265625,25.583398818969727,19.78839874267578,-17.87299919128418
1682880508291223000,5.24922314453125,25.11979866027832,19.86159896850586,-17.970600128173828
1682880508301223200,5.25922314453125,25.375999450683594,19.86159896850586,-18.59280014038086
1682880508311212500,5.269212646484375,25.21739959716797,19.678600311279297,-18.81239891052246
1682880508321223400,5.279223388671875,23.86319923400879,19.642000198364258,-18.397600173950195
1682880508331223300,5.289223388671875,24.985599517822266,19.239398956298828,-18.53179931640625
1682880508341219800,5.2992197265625,24.52199935913086,19.837200164794922,-18.59280014038086
1682880508351223300,5.309223388671875,24.1560001373291,19.397998809814453,-17.994998931884766
1682880508361230000,5.31922998046875,24.90019989013672,20.044599533081055,-17.22640037536621
1682880508371223300,5.329223388671875,24.90019989013672,20.044599533081055,-17.22640037536621
1682880508381223200,5.33922314453125,25.302799224853516,20.337400436401367,-16.16499900817871
1682880508391212500,5.349212646484375,24.86359977722168,21.130399703979492,-15.176799774169922
1682880508401223400,5.359223388671875,24.216999053955078,21.472000122070312,-14.835199356079102
1682880508411223000,5.36922314453125,23.619199752807617,21.54520034790039,-14.408199310302734
1682880508421212400,5.37921240234375,24.49759864807129,21.654998779296875,-14.615599632263184
1682880508431212500,5.389212646484375,24.631799697875977,21.752599716186523,-14.090999603271484
1682880508441233200,5.399233154296875,24.58300018310547,21.691598892211914,-12.944199562072754
1682880508451223000,5.40922314453125,25.546798706054688,21.313400268554688,-11.504599571228027
1682880508461223200,5.41922314453125,25.10759925842285,21.569599151611328,-10.650599479675293
1682880508471212500,5.429212646484375,25.668800354003906,21.423198699951172,-10.345600128173828
1682880508481223200,5.43922314453125,25.290599822998047,21.423198699951172,-9.821000099182129
1682880508491223000,5.44922314453125,24.87579917907715,21.764799118041992,-9.589200019836426
1682880508501212700,5.459212646484375,25.388198852539062,21.86240005493164,-9.686800003051758
1682880508511223000,5.46922314453125,25.644399642944336,22.386999130249023,-10.187000274658203
1682880508521223000,5.479222900390625,25.11979866027832,22.716400146484375,-10.369999885559082
1682880508531214300,5.48921435546875,25.546798706054688,22.996999740600586,-10.248000144958496
1682880508541223200,5.49922314453125,24.985599517822266,23.033599853515625,-11.394800186157227
1682880508551219000,5.509218994140625,24.741600036621094,23.033599853515625,-11.504599571228027
1682880508561223000,5.519222900390625,24.253599166870117,23.960800170898438,-12.065799713134766
1682880508571223000,5.52922314453125,24.082799911499023,24.314599990844727,-11.626599311828613
1682880508581213400,5.53921337890625,24.570798873901367,24.753799438476562,-12.126799583435059
1682880508591223000,5.54922314453125,25.1929988861084,24.86359977722168,-11.809599876403809
1682880508601223200,5.55922314453125,24.87579917907715,25.449199676513672,-12.822199821472168
1682880508611224000,5.56922412109375,24.034000396728516,25.52239990234375,-12.285399436950684
1682880508621223200,5.57922314453125,23.985198974609375,25.766399383544922,-13.005199432373047
1682880508631214800,5.58921484375,23.436199188232422,26.425199508666992,-13.907999992370605
1682880508641223400,5.599223388671875,23.399599075317383,26.2544002532959,-14.127599716186523
1682880508651220500,5.609220458984375,23.253198623657227,26.583799362182617,-14.627799987792969
1682880508661212700,5.619212646484375,22.106399536132812,25.85179901123047,-14.566800117492676
1682880508671223000,5.62922314453125,22.484600067138672,26.900999069213867,-14.810799598693848
1682880508681223000,5.639222900390625,23.375200271606445,26.4739990234375,-15.786799430847168
1682880508691212500,5.649212646484375,22.56999969482422,26.620399475097656,-16.091798782348633
1682880508701223200,5.65922314453125,22.069799423217773,26.51059913635254,-16.2992000579834
1682880508711230700,5.669230712890625,22.14299964904785,26.339799880981445,-16.20159912109375
1682880508721223200,5.67922314453125,22.057600021362305,26.522798538208008,-15.7746000289917
1682880508731223000,5.68922314453125,21.83799934387207,26.071399688720703,-16.116199493408203
1682880508741231400,5.6992314453125,20.947399139404297,25.766399383544922,-17.385000228881836
1682880508751223300,5.709223388671875,21.86240005493164,26.046998977661133,-17.372798919677734
1682880508761217800,5.7192177734375,22.033199310302734,25.80299949645996,-17.079999923706055
1682880508771212500,5.729212646484375,20.80099868774414,25.14419937133789,-17.628999710083008
1682880508781223200,5.73922314453125,20.21539878845215,25.74199867248535,-17.385000228881836
1682880508791223000,5.74922314453125,20.325199127197266,25.11979866027832,-17.946199417114258
1682880508801212700,5.759212646484375,19.837200164794922,25.10759925842285,-18.055999755859375
1682880508811208400,5.76920849609375,19.94700050354004,25.546798706054688,-18.031599044799805
1682880508821214700,5.779214599609375,18.983200073242188,25.49799919128418,-18.653799057006836
1682880508831223300,5.789223388671875,18.702600479125977,25.839599609375,-18.739200592041016
1682880508841223200,5.79922314453125,18.55620002746582,26.278799057006836,-18.397600173950195
1682880508851212800,5.809212890625,18.824600219726562,26.364198684692383,-18.702600479125977
1682880508861223200,5.81922314453125,18.824600219726562,26.364198684692383,-18.702600479125977
1682880508871220700,5.829220703125,16.079599380493164,27.925800323486328,-19.751800537109375
1682880508881223200,5.83922314453125,14.822999954223633,27.80379867553711,-19.336999893188477
1682880508891223000,5.84922314453125,14.017799377441406,28.47480010986328,-19.50779914855957
1682880508901235000,5.85923486328125,14.530200004577637,28.572399139404297,-19.4955997467041
1682880508911212800,5.869212890625,14.969399452209473,28.316200256347656,-20.142200469970703
1682880508921223400,5.879223388671875,13.847000122070312,28.096599578857422,-20.678998947143555
1682880508931212500,5.889212646484375,14.10319995880127,28.194198608398438,-20.56920051574707
1682880508941223200,5.89922314453125,13.688399314880371,28.011199951171875,-20.26420021057129
1682880508951223000,5.90922314453125,13.322400093078613,27.47439956665039,-20.50819969177246
1682880508961212700,5.919212646484375,12.870999336242676,27.010799407958984,-21.264598846435547
1682880508971223600,5.9292236328125,12.60260009765625,27.43779945373535,-21.130399703979492
1682880508981212700,5.939212646484375,12.43179988861084,27.16939926147461,-21.45979881286621
1682880508991223000,5.94922314453125,13.261399269104004,27.632999420166016,-21.118200302124023
1682880509001223000,5.959222900390625,13.151599884033203,28.14539909362793,-21.8257999420166
1682880509011215600,5.969215576171875,11.77299976348877,28.560199737548828,-20.642398834228516
1682880509021212700,5.979212646484375,10.052800178527832,29.46299934387207,-20.788799285888672
1682880509031223300,5.989223388671875,10.894599914550781,29.49959945678711,-20.16659927368164
1682880509041212700,5.999212646484375,9.89419937133789,30.43899917602539,-19.58099937438965
1682880509051223000,6.00922314453125,9.247599601745605,30.341400146484375,-18.958799362182617
1682880509061223200,6.01922314453125,8.295999526977539,30.81719970703125,-19.87380027770996
1682880509071212800,6.029212890625,7.759199619293213,31.15880012512207,-19.324800491333008
1682880509081223200,6.03922314453125,7.356599807739258,31.500398635864258,-19.20279884338379
1682880509091214800,6.04921484375,5.880399703979492,31.890798568725586,-19.275999069213867
1682880509101223200,6.05922314453125,5.880399703979492,31.890798568725586,-19.275999069213867
1682880509111223300,6.069223388671875,5.124000072479248,31.890798568725586,-17.90959930419922
1682880509121213000,6.079212890625,4.757999897003174,32.4031982421875,-17.982799530029297
1682880509131223600,6.0892236328125,3.062199831008911,32.45199966430664,-17.25079917907715
1682880509141223200,6.09922314453125,2.720599889755249,32.6349983215332,-16.60420036315918
1682880509151223300,6.109223388671875,2.964599847793579,33.15959930419922,-16.677400588989258
1682880509161223200,6.11922314453125,2.36680006980896,32.8302001953125,-15.127999305725098
1682880509171210800,6.129210693359375,1.4395999908447266,33.39139938354492,-16.25040054321289
1682880509181223400,6.139223388671875,1.329800009727478,32.95219802856445,-16.067399978637695
1682880509191223000,6.14922314453125,0.8783999681472778,33.64759826660156,-15.603799819946289
1682880509201212700,6.159212646484375,-0.17080000042915344,33.257198333740234,-15.835599899291992
1682880509211213000,6.169213134765625,0.2683999836444855,33.09859848022461,-15.628199577331543
1682880509221223200,6.17922314453125,0.536799967288971,33.72079849243164,-15.591599464416504
1682880509231205600,6.18920556640625,0.17080000042915344,33.28160095214844,-14.993800163269043
1682880509241223200,6.19922314453125,0.5856000185012817,33.464599609375,-15.189000129699707
1682880509251235600,6.209235595703125,1.500599980354309,33.8671989440918,-14.017799377441406
1682880509261223200,6.21922314453125,2.086199998855591,33.79399871826172,-14.127599716186523
1682880509271223000,6.22922314453125,1.6957999467849731,33.17179870605469,-13.956799507141113
1682880509281206000,6.2392060546875,3.4891998767852783,33.049800872802734,-14.078800201416016
1682880509291223000,6.24922314453125,3.6111998558044434,33.17179870605469,-13.029600143432617
1682880509301223000,6.259222900390625,3.4403998851776123,32.988800048828125,-13.029600143432617
1682880509311212500,6.269212646484375,4.953199863433838,32.78139877319336,-12.736800193786621
1682880509321223200,6.27922314453125,5.001999855041504,32.939998626708984,-13.151599884033203
1682880509331223000,6.28922314453125,6.014599800109863,32.732601165771484,-12.017000198364258
1682880509341213000,6.299212890625,5.489999771118164,32.96440124511719,-12.724599838256836
1682880509351223600,6.3092236328125,6.6855998039245605,32.50080108642578,-12.029199600219727
1682880509361218300,6.31921826171875,7.807999610900879,31.671199798583984,-11.45580005645752
1682880509371223000,6.32922314453125,7.490799903869629,31.82979965209961,-11.858399391174316
1682880509381223200,6.33922314453125,8.186200141906738,31.768798828125,-11.236199378967285
1682880509391213300,6.34921337890625,8.503399848937988,31.622400283813477,-10.723799705505371
1682880509401223400,6.359223388671875,7.344399929046631,31.73219871520996,-11.870599746704102
1682880509411223300,6.369223388671875,8.576600074768066,31.768798828125,-12.07800006866455
1682880509421223200,6.37922314453125,9.174399375915527,30.841598510742188,-11.297200202941895
1682880509431223300,6.389223388671875,10.162599563598633,30.963600158691406,-10.882399559020996
1682880509441212400,6.39921240234375,10.528599739074707,30.987998962402344,-10.565199851989746
1682880509451223300,6.409223388671875,11.138599395751953,31.000200271606445,-10.565199851989746
1682880509461223400,6.419223388671875,10.187000274658203,31.15880012512207,-10.028399467468262
1682880509471212800,6.429212890625,11.10200023651123,31.024599075317383,-9.101200103759766
1682880509481223000,6.439222900390625,9.74779987335205,31.000200271606445,-8.46679973602295
1682880509491223000,6.44922314453125,9.711199760437012,31.878599166870117,-8.100799560546875
1682880509501212400,6.45921240234375,9.40619945526123,32.244598388671875,-6.819799900054932
1682880509511223300,6.469223388671875,9.064599990844727,32.31779861450195,-6.929599761962891
1682880509521218600,6.479218505859375,8.210599899291992,32.8057975769043,-7.21019983291626
1682880509531223300,6.489223388671875,8.271599769592285,33.07419967651367,-6.978399753570557
1682880509541223200,6.49922314453125,8.015399932861328,32.988800048828125,-6.990599632263184
1682880509551211800,6.509211669921875,6.356199741363525,33.20840072631836,-6.5513997077941895
1682880509561223400,6.519223388671875,6.624599933624268,32.878997802734375,-5.624199867248535
1682880509571223300,6.529223388671875,5.746200084686279,33.293800354003906,-5.282599925994873
1682880509581212700,6.539212646484375,5.95359992980957,33.22060012817383,-4.97760009765625
1682880509591218000,6.549218017578125,6.2342000007629395,33.940399169921875,-4.416399955749512
1682880509601223200,6.55922314453125,6.014599800109863,33.6963996887207,-2.85479998588562
1682880509611212800,6.569212890625,3.171999931335449,34.5015983581543,-2.171599864959717
1682880509621223400,6.579223388671875,3.3671998977661133,34.85540008544922,-2.0495998859405518
1682880509631222000,6.589221923828125,1.122399926185608,35.05059814453125,-2.037400007247925
1682880509641212700,6.599212646484375,0.4513999819755554,34.77000045776367,-2.15939998626709
1682880509651223000,6.60922314453125,-0.20739999413490295,35.001800537109375,-2.562000036239624
1682880509661213200,6.619213134765625,-1.9153999090194702,34.830997467041016,-3.9161999225616455
1682880509671223300,6.629223388671875,-2.537600040435791,35.67279815673828,-4.916599750518799
1682880509681223000,6.639222900390625,-3.9405999183654785,34.830997467041016,-5.270400047302246
1682880509691214000,6.649214111328125,-5.245999813079834,34.86759948730469,-5.685199737548828
1682880509701223000,6.659222900390625,-6.039000034332275,34.47719955444336,-7.173599720001221
1682880509711229000,6.66922900390625,-6.978399753570557,34.5260009765625,-7.478600025177002
1682880509721223400,6.679223388671875,-8.381400108337402,33.684200286865234,-8.052000045776367
1682880509731223600,6.6892236328125,-8.2593994140625,33.58660125732422,-8.686399459838867
1682880509741208000,6.6992080078125,-9.149999618530273,33.37919998168945,-9.003600120544434
1682880509751223000,6.70922314453125,-9.540399551391602,33.80619812011719,-8.869400024414062
1682880509761223200,6.71922314453125,-10.918999671936035,33.0620002746582,-9.12559986114502
1682880509771212800,6.729212890625,-10.187000274658203,32.561798095703125,-9.162199974060059
1682880509781223200,6.73922314453125,-11.016599655151367,32.610599517822266,-9.674599647521973
1682880509791219700,6.7492197265625,-11.28499984741211,32.52519989013672,-9.162199974060059
1682880509801223200,6.75922314453125,-11.882800102233887,32.07379913330078,-8.979199409484863
1682880509811223300,6.769223388671875,-12.517199516296387,31.976200103759766,-9.08899974822998
1682880509821204700,6.779204833984375,-12.639200210571289,31.976200103759766,-8.77180004119873
1682880509831223600,6.7892236328125,-12.639200210571289,31.976200103759766,-8.77180004119873
1682880509841222400,6.799222412109375,-11.553400039672852,31.378398895263672,-9.4306001663208
1682880509851223300,6.809223388671875,-12.22439956665039,31.085599899291992,-9.979599952697754
1682880509861223200,6.81922314453125,-11.040999412536621,30.841598510742188,-10.93120002746582
1682880509871223000,6.82922314453125,-11.467999458312988,30.036399841308594,-11.394800186157227
1682880509881213400,6.83921337890625,-10.955599784851074,30.670799255371094,-11.358200073242188
1682880509891223000,6.84922314453125,-11.358200073242188,29.42639923095703,-11.955999374389648
1682880509901218600,6.859218505859375,-10.260199546813965,29.4507999420166,-12.163399696350098
1682880509911223000,6.86922314453125,-10.125999450683594,28.926198959350586,-12.724599838256836
1682880509921223000,6.879222900390625,-9.686800003051758,29.292200088500977,-12.3951997756958
1682880509931212800,6.889212890625,-9.369600296020508,28.51140022277832,-12.858799934387207
1682880509941223400,6.899223388671875,-9.418399810791016,28.328399658203125,-13.078399658203125
1682880509951223600,6.9092236328125,-9.479399681091309,28.48699951171875,-13.480999946594238
1682880509961223200,6.91922314453125,-8.845000267028809,27.632999420166016,-13.541999816894531
1682880509971223000,6.92922314453125,-8.95479965209961,28.15760040283203,-13.395599365234375
1682880509981212400,6.93921240234375,-8.015399932861328,28.10879898071289,-13.09060001373291
1682880509991223600,6.9492236328125,-8.076399803161621,28.377199172973633,-12.663599967956543
1682880510001223200,6.95922314453125,-8.332599639892578,27.85260009765625,-12.480599403381348
1682880510011212800,6.969212890625,-9.235400199890137,28.18199920654297,-11.626599311828613
1682880510021223200,6.97922314453125,-9.650199890136719,27.998998641967773,-11.73639965057373
1682880510031223000,6.98922314453125,-8.979199409484863,28.81639862060547,-11.163000106811523
1682880510041212400,6.99921240234375,-9.40619945526123,28.633399963378906,-10.552999496459961
1682880510051223300,7.009223388671875,-8.7839994430542,29.279998779296875,-9.881999969482422
1682880510061235200,7.019235107421875,-9.186599731445312,29.194599151611328,-9.162199974060059
1682880510071223000,7.02922314453125,-9.186599731445312,29.194599151611328,-9.162199974060059
1682880510081223000,7.039222900390625,-7.734799861907959,29.78019905090332,-8.28380012512207
1682880510091223800,7.049223876953125,-7.234600067138672,29.365400314331055,-8.003199577331543
1682880510101223400,7.059223388671875,-7.759199619293213,29.694799423217773,-7.86899995803833
1682880510111223300,7.069223388671875,-8.052000045776367,30.14620018005371,-6.6977996826171875
1682880510121223200,7.07922314453125,-8.686399459838867,29.951000213623047,-7.124799728393555
1682880510131223000,7.08922314453125,-9.113399505615234,29.76799964904785,-6.612400054931641
1682880510141233000,7.09923291015625,-9.08899974822998,29.8533992767334,-6.612400054931641
1682880510151212800,7.109212890625,-8.710800170898438,29.963199615478516,-6.075599670410156
1682880510161223400,7.119223388671875,-8.43019962310791,29.633798599243164,-5.990200042724609
1682880510171212500,7.129212646484375,-8.686399459838867,30.573200225830078,-6.246399879455566
1682880510181223200,7.13922314453125,-7.795799732208252,30.365798950195312,-5.111799716949463
1682880510191223000,7.14922314453125,-8.442399978637695,30.17059898376465,-5.026400089263916
1682880510201213000,7.159212890625,-7.795799732208252,29.84119987487793,-5.258199691772461
1682880510211223600,7.1692236328125,-8.186200141906738,29.633798599243164,-5.892600059509277
1682880510221223200,7.17922314453125,-7.588399887084961,30.18280029296875,-5.551000118255615
1682880510231223000,7.18922314453125,-8.527799606323242,30.13399887084961,-6.905200004577637
1682880510241223200,7.19922314453125,-9.454999923706055,29.316598892211914,-6.953999996185303
1682880510251205600,7.20920556640625,-9.235400199890137,29.243398666381836,-6.7465996742248535
1682880510261223400,7.219223388671875,-9.027999877929688,29.072599411010742,-6.96619987487793
1682880510271223000,7.22922314453125,-9.650199890136719,29.060400009155273,-6.4415998458862305
1682880510281212700,7.239212646484375,-10.430999755859375,29.292200088500977,-6.6367998123168945
1682880510291223000,7.24922314453125,-11.175199508666992,28.645599365234375,-7.307799816131592
1682880510301223200,7.25922314453125,-12.199999809265137,28.975000381469727,-6.856400012969971
1682880510311212500,7.269212646484375,-11.443599700927734,28.560199737548828,-6.990599632263184
1682880510321223200,7.27922314453125,-12.407400131225586,29.14579963684082,-6.5391998291015625
1682880510331219700,7.2892197265625,-12.809999465942383,29.072599411010742,-5.599800109863281
1682880510341223200,7.29922314453125,-13.456600189208984,29.40199851989746,-5.477799892425537
1682880510351223300,7.309223388671875,-13.261399269104004,29.340999603271484,-4.428599834442139
1682880510361216300,7.31921630859375,-13.139399528503418,29.340999603271484,-4.221199989318848
1682880510371212500,7.329212646484375,-13.163799285888672,29.889999389648438,-3.147599935531616
1682880510381223200,7.33922314453125,-13.053999900817871,29.80459976196289,-3.2574000358581543
1682880510391223300,7.349223388671875,-12.822199821472168,29.40199851989746,-1.9275999069213867
1682880510401223200,7.35922314453125,-12.480599403381348,29.8533992767334,-1.5859999656677246
1682880510411219000,7.369218994140625,-12.724599838256836,29.951000213623047,-0.9515999555587769
1682880510421213000,7.379212890625,-12.321999549865723,30.14620018005371,-0.3050000071525574
1682880510431223600,7.3892236328125,-12.321999549865723,30.670799255371094,-0.17080000042915344
1682880510441236500,7.399236572265625,-11.309399604797363,30.353599548339844,0.012199999764561653
1682880510451223300,7.409223388671875,-11.821800231933594,30.78059959411621,0.3537999987602234
1682880510461223200,7.41922314453125,-11.272799491882324,31.061199188232422,0.2683999836444855
1682880510471212800,7.429212890625,-10.321199417114258,31.10999870300293,1.207800030708313
1682880510481223200,7.43922314453125,-9.881999969482422,30.85379981994629,0.7685999870300293
1682880510491223000,7.44922314453125,-8.234999656677246,31.268598556518555,1.6225999593734741
1682880510501223200,7.45922314453125,-8.088600158691406,30.939199447631836,2.440000057220459
1682880510511223000,7.46922314453125,-7.661599636077881,31.10999870300293,1.5127999782562256
1682880510521215000,7.479215087890625,-7.197999954223633,30.609800338745117,2.208199977874756
1682880510531215000,7.489215087890625,-5.428999900817871,30.82939910888672,1.6957999467849731
1682880510541223400,7.499223388671875,-5.514400005340576,30.585399627685547,2.622999906539917
1682880510551212800,7.509212890625,-3.062199831008911,30.646398544311523,2.0007998943328857
1682880510561223200,7.51922314453125,-3.8917999267578125,30.80500030517578,2.525399923324585
1682880510571217200,7.529217041015625,-2.879199981689453,30.5,3.1354000568389893
1682880510581212700,7.539212646484375,-1.6957999467849731,30.45119857788086,3.3427999019622803
1682880510591223600,7.5492236328125,-1.476199984550476,30.378000259399414,3.6477999687194824
1682880510601213200,7.559213134765625,-1.073599934577942,30.14620018005371,4.574999809265137
1682880510611223300,7.569223388671875,-1.6347999572753906,30.304800033569336,4.477399826049805
1682880510621223200,7.57922314453125,-0.536799967288971,30.43899917602539,5.319200038909912
1682880510631212000,7.5892119140625,-0.8295999765396118,29.74359893798828,5.904799938201904
1682880510641223400,7.599223388671875,-1.573799967765808,30.255998611450195,6.356199741363525
1682880510651223300,7.609223388671875,-1.6835999488830566,29.828998565673828,6.856400012969971
1682880510661223200,7.61922314453125,-1.6469999551773071,29.999799728393555,6.661200046539307
1682880510671223000,7.62922314453125,-1.7567999362945557,30.09739875793457,7.502999782562256
1682880510681213400,7.63921337890625,-2.671799898147583,30.329198837280273,7.515199661254883
1682880510691223600,7.6492236328125,-2.684000015258789,29.81679916381836,8.003199577331543
1682880510701223400,7.659223388671875,-2.61080002784729,30.17059898376465,8.234999656677246
1682880510711219700,7.6692197265625,-3.1963999271392822,30.243799209594727,8.027600288391113
1682880510721212700,7.679212646484375,-4.721399784088135,30.46339988708496,8.46679973602295
1682880510731223000,7.68922314453125,-6.209799766540527,30.743999481201172,7.649399757385254
1682880510741213400,7.69921337890625,-5.965799808502197,31.183198928833008,6.941799640655518
1682880510751223600,7.7092236328125,-7.429800033569336,31.024599075317383,5.892600059509277
1682880510761223400,7.719223388671875,-8.95479965209961,31.658998489379883,5.209399700164795
1682880510771212500,7.729212646484375,-9.174399375915527,31.744400024414062,5.001999855041504
1682880510781223200,7.73922314453125,-10.223599433898926,32.19580078125,3.2574000358581543
1682880510791224600,7.749224609375,-11.321599960327148,31.939599990844727,0.9515999555587769
1682880510801223400,7.759223388671875,-11.321599960327148,31.939599990844727,0.9515999555587769
1682880510811223600,7.7692236328125,-12.785599708557129,32.31779861450195,0.13419999182224274
1682880510821212700,7.779212646484375,-14.042200088500977,31.366199493408203,-2.013000011444092
1682880510831223300,7.789223388671875,-14.054399490356445,31.683399200439453,-3.4526000022888184
1682880510841223200,7.79922314453125,-13.920199394226074,31.15880012512207,-4.0015997886657715
1682880510851212500,7.809212646484375,-14.798599243164062,31.048999786376953,-4.013800144195557
1682880510861223400,7.819223388671875,-14.286199569702148,31.03679847717285,-5.270400047302246
1682880510871214800,7.82921484375,-14.176400184631348,31.46379852294922,-5.551000118255615
1682880510881223200,7.83922314453125,-14.310599327087402,31.366199493408203,-5.770599842071533
1682880510891223000,7.84922314453125,-14.38379955291748,31.524799346923828,-6.4903998374938965
1682880510901213000,7.859212890625,-15.127999305725098,31.41499900817871,-6.807600021362305
1682880510911223600,7.8692236328125,-13.785999298095703,31.45159912109375,-7.027199745178223
1682880510921223400,7.879223388671875,-14.139800071716309,31.43939971923828,-7.332200050354004
1682880510931223000,7.88922314453125,-13.102799415588379,31.73219871520996,-7.21019983291626
1682880510941223200,7.89922314453125,-13.517600059509277,31.5492000579834,-7.124799728393555
1682880510951214800,7.90921484375,-12.785599708557129,32.09819793701172,-6.673399925231934
1682880510961223400,7.919223388671875,-12.785599708557129,31.573598861694336,-7.014999866485596
1682880510971223000,7.92922314453125,-12.175600051879883,32.11040115356445,-6.770999908447266
1682880510981217300,7.93921728515625,-12.334199905395508,32.45199966430664,-6.856400012969971
1682880510991223000,7.94922314453125,-11.90719985961914,32.20800018310547,-6.978399753570557
1682880511001223200,7.95922314453125,-12.407400131225586,32.622798919677734,-7.161399841308594
1682880511011213000,7.969213134765625,-11.504599571228027,32.81800079345703,-7.466399669647217
1682880511021223700,7.9792236328125,-11.77299976348877,32.732601165771484,-7.051599979400635
1682880511031223600,7.9892236328125,-11.321599960327148,32.13479995727539,-6.990599632263184
1682880511041223200,7.99922314453125,-11.785200119018555,32.74480056762695,-6.5269999504089355
1682880511051223000,8.00922314453125,-11.870599746704102,33.33039855957031,-7.332200050354004
1682880511061208800,8.019208740234374,-12.468400001525879,33.40359878540039,-7.112599849700928
1682880511071223600,8.0292236328125,-11.687600135803223,33.70859909057617,-6.258599758148193
1682880511081223200,8.03922314453125,-10.504199981689453,33.562198638916016,-6.4781999588012695
1682880511091205000,8.049205078125,-10.333399772644043,33.84280014038086,-5.636399745941162
1682880511101223200,8.05922314453125,-9.686800003051758,34.14780044555664,-4.465199947357178
1682880511111223000,8.06922314453125,-9.967399597167969,34.07460021972656,-3.8429999351501465
1682880511121214000,8.0792138671875,-9.174399375915527,33.940399169921875,-3.013399839401245
1682880511131223600,8.0892236328125,-10.90679931640625,34.3307991027832,-2.574199914932251
1682880511141212700,8.099212646484375,-9.967399597167969,34.70899963378906,-2.342400074005127
1682880511151223300,8.109223388671875,-10.052800178527832,34.46500015258789,-1.207800030708313
1682880511161223200,8.11922314453125,-9.552599906921387,34.05019760131836,-1.0247999429702759
1682880511171212500,8.129212646484374,-10.150400161743164,34.66019821166992,-0.3537999987602234
1682880511181223200,8.13922314453125,-9.808799743652344,34.684600830078125,0.3781999945640564
1682880511191223300,8.149223388671874,-10.333399772644043,35.02619934082031,0.8173999786376953
1682880511201223200,8.15922314453125,-10.369999885559082,34.41619873046875,0.8783999681472778
1682880511211223300,8.169223388671876,-9.857600212097168,35.03839874267578,1.1345999240875244
1682880511221224700,8.179224609375,-10.675000190734863,34.67239761352539,1.2200000286102295
1682880511231223600,8.1892236328125,-10.772600173950195,34.7578010559082,1.329800009727478
1682880511241223700,8.1992236328125,-11.089799880981445,34.904197692871094,0.7075999975204468
1682880511251216100,8.209216064453125,-11.858399391174316,35.1359977722168,-0.10979999601840973
1682880511261223200,8.21922314453125,-12.687999725341797,35.18479919433594,-0.5245999693870544
1682880511271223000,8.22922314453125,-14.347199440002441,34.257598876953125,-1.0003999471664429
1682880511281213000,8.239212890625,-14.188599586486816,34.3307991027832,-1.6225999593734741
1682880511291223300,8.249223388671876,-15.286600112915039,34.40399932861328,-1.0857999324798584
1682880511301223200,8.25922314453125,-16.689599990844727,34.0989990234375,-1.0003999471664429
1682880511311223300,8.269223388671875,-18.421998977661133,33.96479797363281,-0.7929999828338623
1682880511321223000,8.279222900390625,-17.690000534057617,33.464599609375,-0.8295999765396118
1682880511331229000,8.28922900390625,-18.83679962158203,33.78179931640625,-0.48799997568130493
1682880511341223700,8.2992236328125,-19.642000198364258,33.39139938354492,-1.1345999240875244
1682880511351223000,8.30922314453125,-19.800600051879883,33.33039855957031,0.012199999764561653
1682880511361224000,8.319223876953124,-20.776599884033203,33.183998107910156,-0.9393999576568604
1682880511371223300,8.329223388671876,-20.764400482177734,33.28160095214844,-0.7197999954223633
1682880511381223200,8.33922314453125,-20.739999771118164,32.84239959716797,-1.0613999366760254
1682880511391212800,8.349212890625,-21.667200088500977,33.08639907836914,-0.3172000050544739
1682880511401223400,8.359223388671875,-20.92300033569336,33.09859848022461,-0.6344000101089478
1682880511411233500,8.369233642578125,-21.081600189208984,33.02539825439453,-0.21959999203681946
1682880511421213000,8.379212890625,-21.83799934387207,32.39099884033203,-0.25619998574256897
1682880511431223000,8.38922314453125,-21.91119956970215,33.07419967651367,-0.3172000050544739
1682880511441212700,8.399212646484376,-21.55739974975586,33.11079788208008,0.4147999882698059
1682880511451222500,8.409222412109376,-21.58180046081543,33.01319885253906,0.3050000071525574
1682880511461223700,8.4192236328125,-20.53260040283203,33.40359878540039,0.7441999912261963
1682880511471223300,8.429223388671875,-21.020599365234375,33.39139938354492,0.7441999912261963
1682880511481223200,8.43922314453125,-20.5447998046875,33.84280014038086,0.7685999870300293
1682880511491221800,8.4492216796875,-20.142200469970703,33.501197814941406,0.8539999723434448
1682880511501213000,8.459212890625,-21.20359992980957,33.75740051269531,1.9153999090194702
1682880511511223600,8.4692236328125,-19.422399520874023,34.062400817871094,1.6225999593734741
1682880511521218000,8.479218017578125,-20.337400436401367,34.2942008972168,1.42739999294281
1682880511531223000,8.48922314453125,-20.398399353027344,34.03799819946289,1.8299999237060547
1682880511541223200,8.49922314453125,-19.324800491333008,34.513797760009766,2.061800003051758
1682880511551214800,8.50921484375,-19.84939956665039,33.891597747802734,2.440000057220459
1682880511561212700,8.519212646484375,-19.336999893188477,33.989200592041016,2.244799852371216
1682880511571223600,8.5292236328125,-19.312599182128906,34.61140060424805,2.586400032043457
1682880511581223200,8.53922314453125,-18.958799362182617,34.208797454833984,3.6111998558044434
1682880511591213000,8.549213134765624,-18.995399475097656,34.66019821166992,4.892199993133545
1682880511601212400,8.55921240234375,-18.89780044555664,34.05019760131836,4.440799713134766
1682880511611212800,8.569212890625,-18.20240020751953,34.001399993896484,5.587599754333496
1682880511621223400,8.579223388671876,-17.153200149536133,34.39179992675781,5.70959997177124
1682880511631212500,8.589212646484375,-17.702199935913086,34.12339782714844,6.112199783325195
1682880511641223200,8.59922314453125,-16.982398986816406,34.67239761352539,6.453799724578857
1682880511651223000,8.60922314453125,-17.27519989013672,34.07460021972656,7.576200008392334
1682880511661212400,8.61921240234375,-15.994199752807617,34.379600524902344,7.795799732208252
1682880511671223300,8.629223388671875,-14.993800163269043,34.59920120239258,8.747400283813477
1682880511681217300,8.63921728515625,-15.335399627685547,34.78219985961914,9.284199714660645
1682880511691223300,8.649223388671874,-14.347199440002441,34.904197692871094,9.918600082397461
1682880511701223000,8.659222900390626,-14.225199699401855,34.91640090942383,10.016200065612793
1682880511711212800,8.669212890625,-14.029999732971191,34.74559783935547,10.003999710083008
1682880511721223400,8.679223388671875,-14.078800201416016,34.586997985839844,10.723799705505371
1682880511731223300,8.689223388671875,-14.017799377441406,34.41619873046875,11.236199378967285
1682880511741223200,8.69922314453125,-13.188199996948242,34.367401123046875,11.760799407958984
1682880511751223300,8.709223388671875,-12.724599838256836,34.2942008972168,11.541199684143066
1682880511761213700,8.719213623046874,-12.956399917602539,34.80659866333008,11.370399475097656
1682880511771223600,8.7292236328125,-12.956399917602539,34.80659866333008,11.370399475097656
1682880511781223200,8.73922314453125,-12.26099967956543,34.22100067138672,12.065799713134766
1682880511791212500,8.749212646484375,-11.797399520874023,34.684600830078125,12.505000114440918
1682880511801223200,8.75922314453125,-12.517199516296387,34.74559783935547,12.517199516296387
1682880511811223300,8.769223388671875,-12.321999549865723,35.013999938964844,12.419599533081055
1682880511821213000,8.779212890625,-11.07759952545166,35.1359977722168,12.11460018157959
1682880511831223600,8.7892236328125,-11.809599876403809,35.11159896850586,12.004799842834473
1682880511841233200,8.799233154296875,-11.992599487304688,35.3677978515625,11.919400215148926
1682880511851223300,8.809223388671874,-12.419599533081055,35.61180114746094,12.041399955749512
1682880511861223400,8.819223388671874,-12.004799842834473,35.68499755859375,10.687199592590332
1682880511871212500,8.829212646484375,-12.797800064086914,35.92900085449219,10.90679931640625
1682880511881223200,8.83922314453125,-12.370800018310547,36.209598541259766,10.821399688720703
1682880511891223000,8.84922314453125,-12.932000160217285,37.209999084472656,9.418399810791016
1682880511901209300,8.859209228515626,-13.005199432373047,36.8317985534668,8.356999397277832
1682880511911223300,8.869223388671875,-12.9197998046875,37.71019744873047,8.515600204467773
1682880511921223200,8.87922314453125,-14.395999908447266,37.05139923095703,8.052000045776367
1682880511931212800,8.889212890625,-13.61520004272461,37.661399841308594,7.258999824523926
1682880511941223400,8.899223388671874,-15.286600112915039,37.68579864501953,6.4293999671936035
1682880511951209700,8.909209716796875,-15.725799560546875,37.7224006652832,4.757999897003174
1682880511961223200,8.91922314453125,-17.994998931884766,37.2953987121582,4.221199989318848
1682880511971223000,8.92922314453125,-19.031999588012695,37.31979751586914,2.64739990234375
1682880511981213000,8.939212890625,-20.21539878845215,36.81959915161133,1.3664000034332275
1682880511991223300,8.949223388671875,-20.764400482177734,36.44139862060547,0.4025999903678894
1682880512001223200,8.95922314453125,-22.582199096679688,36.270599365234375,-1.0613999366760254
1682880512011223300,8.969223388671875,-23.704599380493164,36.05099868774414,-1.6957999467849731
1682880512021223200,8.97922314453125,-24.680599212646484,35.91679763793945,-2.64739990234375
1682880512031223800,8.989223876953124,-26.16899871826172,35.14820098876953,-4.0503997802734375
1682880512041223400,8.999223388671876,-26.083599090576172,34.85540008544922,-5.209399700164795
1682880512051223600,9.0092236328125,-25.986000061035156,34.78219985961914,-4.794600009918213
1682880512061212700,9.019212646484375,-26.315399169921875,34.952999114990234,-4.892199993133545
1682880512071223300,9.029223388671875,-26.339799880981445,34.86759948730469,-4.794600009918213
1682880512081223200,9.03922314453125,-26.351999282836914,35.29459762573242,-4.660399913787842
1682880512091214000,9.049214111328125,-27.340200424194336,35.28239822387695,-4.0381999015808105
1682880512101223400,9.059223388671874,-26.229999542236328,35.40439987182617,-3.8185999393463135
1682880512111223300,9.069223388671874,-26.925399780273438,36.08760070800781,-3.4647998809814453
1682880512121223200,9.07922314453125,-25.290599822998047,36.41699981689453,-2.720599889755249
1682880512131223300,9.089223388671876,-25.729799270629883,36.67319869995117,-2.183799982070923
1682880512141215500,9.099215576171876,-24.85140037536621,36.892799377441406,-1.232200026512146
1682880512151223600,9.1092236328125,-24.461000442504883,37.527198791503906,-0.9759999513626099
1682880512161223400,9.119223388671875,-24.412199020385742,37.68579864501953,-1.281000018119812
1682880512171212500,9.129212646484374,-23.19219970703125,37.83219909667969,-0.6466000080108643
1682880512181223200,9.13922314453125,-23.85099983215332,38.588600158691406,-0.5978000164031982
1682880512191223000,9.14922314453125,-22.948200225830078,38.89360046386719,-0.17080000042915344
1682880512201214500,9.15921435546875,-22.167400360107422,39.186397552490234,0.3659999966621399
1682880512211206700,9.16920654296875,-22.289400100708008,39.19860076904297,0.8905999660491943
1682880512221212700,9.179212646484375,-21.764799118041992,39.491397857666016,1.9519999027252197
1682880512231235800,9.18923583984375,-22.069799423217773,39.74760055541992,2.0739998817443848
1682880512241223200,9.19922314453125,-21.410999298095703,40.564998626708984,3.062199831008911
1682880512251212800,9.209212890625,-21.398799896240234,40.247798919677734,4.1967997550964355
1682880512261223400,9.219223388671875,-20.22760009765625,40.21120071411133,5.233799934387207
1682880512271223600,9.2292236328125,-20.434999465942383,40.918800354003906,6.014599800109863
1682880512281237000,9.239237060546875,-19.458999633789062,40.63819885253906,7.86899995803833
1682880512291223000,9.24922314453125,-19.983598709106445,40.44300079345703,7.551799774169922
1682880512301216800,9.259216796875,-19.910400390625,39.84519958496094,8.454599380493164
1682880512311212800,9.269212890625,-21.081600189208984,39.57679748535156,9.479399681091309
1682880512321223400,9.279223388671875,-20.80099868774414,39.857398986816406,10.44320011138916
1682880512331212800,9.289212890625,-21.20359992980957,39.78419876098633,11.382599830627441
1682880512341223200,9.29922314453125,-20.361799240112305,39.71099853515625,11.053199768066406
1682880512351223300,9.309223388671874,-20.20319938659668,39.991600036621094,11.809599876403809
1682880512361210600,9.319210693359375,-19.458999633789062,39.90620040893555,10.540800094604492
1682880512371223600,9.3292236328125,-19.654199600219727,40.58939743041992,10.382200241088867
1682880512381205500,9.33920556640625,-19.20279884338379,40.4307975769043,10.162599563598633
1682880512391223300,9.349223388671875,-18.714799880981445,40.44300079345703,9.942999839782715
1682880512401223200,9.35922314453125,-17.714399337768555,40.97979736328125,9.040200233459473
1682880512411219000,9.369218994140626,-17.775400161743164,40.71139907836914,8.91819953918457
1682880512421223400,9.379223388671875,-17.26300048828125,41.22380065917969,8.003199577331543
1682880512431222300,9.38922216796875,-16.311399459838867,41.16279983520508,7.893399715423584
1682880512441212700,9.399212646484376,-15.554999351501465,41.80939865112305,8.137399673461914
1682880512451213000,9.409213134765626,-15.73799991607666,41.54100036621094,8.015399932861328
1682880512461223200,9.41922314453125,-14.59119987487793,41.3213996887207,8.527799606323242
1682880512471212800,9.429212890625,-15.530599594116211,40.943199157714844,8.710800170898438
1682880512481212700,9.439212646484375,-15.652599334716797,41.04079818725586,9.247599601745605
1682880512491228000,9.449227783203124,-14.944999694824219,40.882198333740234,8.710800170898438
1682880512501223200,9.45922314453125,-14.017799377441406,41.260398864746094,8.94260025024414
1682880512511223000,9.46922314453125,-13.114999771118164,41.45560073852539,8.95479965209961
1682880512521213700,9.479213623046874,-13.420000076293945,41.71179962158203,8.649800300598145
1682880512531227000,9.489226806640625,-13.151599884033203,42.321800231933594,8.796199798583984
1682880512541223400,9.499223388671876,-12.993000030517578,41.882598876953125,7.929999828338623
1682880512551223300,9.509223388671876,-14.029999732971191,41.577598571777344,7.710399627685547
1682880512561223200,9.51922314453125,-13.468799591064453,41.85820007324219,7.405399799346924
1682880512571220500,9.529220458984375,-13.627399444580078,41.67519760131836,7.088200092315674
1682880512581213400,9.53921337890625,-14.06659984588623,41.821598052978516,6.783199787139893
1682880512591223000,9.54922314453125,-13.834799766540527,42.260799407958984,6.6001996994018555
1682880512601213000,9.559212890625,-15.22559928894043,41.943599700927734,5.746200084686279
1682880512611223000,9.56922314453125,-13.944600105285645,42.785400390625,6.417200088500977
1682880512621223200,9.57922314453125,-13.297999382019043,42.02899932861328,7.100399971008301
1682880512631212800,9.589212890625,-14.200799942016602,42.77320098876953,6.624599933624268
1682880512641223400,9.599223388671875,-14.090999603271484,42.68779754638672,6.417200088500977
1682880512651213000,9.609213134765625,-13.334599494934082,42.3828010559082,7.234600067138672
1682880512661223200,9.61922314453125,-13.06619930267334,42.46820068359375,6.710000038146973
1682880512671223300,9.629223388671875,-12.419599533081055,42.5536003112793,5.977999687194824
1682880512681218600,9.639218505859375,-11.748600006103516,42.846397399902344,6.307399749755859
1682880512691223300,9.649223388671874,-11.406999588012695,42.77320098876953,6.514800071716309
1682880512701223400,9.659223388671874,-10.687199592590332,43.322200775146484,6.96619987487793
1682880512711212800,9.669212890625,-10.504199981689453,44.017601013183594,6.2708001136779785
1682880512721223200,9.67922314453125,-10.736000061035156,43.05379867553711,6.3196001052856445
1682880512731223300,9.689223388671875,-10.040599822998047,43.944400787353516,6.2708001136779785
1682880512741212700,9.699212646484375,-9.308599472045898,43.96879959106445,6.3684000968933105
1682880512751223600,9.7092236328125,-8.735199928283691,44.224998474121094,5.453399658203125
1682880512761212400,9.71921240234375,-8.698599815368652,44.39579772949219,5.453399658203125
1682880512771223300,9.729223388671874,-8.186200141906738,44.50559997558594,5.563199996948242
1682880512781223200,9.73922314453125,-8.173999786376953,45.12779998779297,6.02679967880249
1682880512791213300,9.74921337890625,-7.929999828338623,45.12779998779297,5.916999816894531
1682880512801223700,9.7592236328125,-7.100399971008301,44.969200134277344,5.172800064086914
1682880512811223000,9.76922314453125,-7.161399841308594,45.75,5.22160005569458
1682880512821223200,9.77922314453125,-7.21019983291626,45.591400146484375,5.941400051116943
1682880512831223300,9.789223388671875,-7.051599979400635,45.77439880371094,6.160999774932861
1682880512841217300,9.79921728515625,-5.965799808502197,45.71339797973633,5.733999729156494
1682880512851223600,9.8092236328125,-5.697400093078613,45.908599853515625,6.3805999755859375
1682880512861223200,9.81922314453125,-5.965799808502197,45.81100082397461,6.5879998207092285
1682880512871214300,9.82921435546875,-5.526599884033203,46.07939910888672,5.868199825286865
1682880512881223200,9.83922314453125,-4.757999897003174,46.274600982666016,6.087800025939941
1682880512891223000,9.84922314453125,-3.8795998096466064,46.39659881591797,6.295199871063232
1682880512901209600,9.859209716796874,-3.9284000396728516,46.213600158691406,6.185400009155273
1682880512911223600,9.8692236328125,-3.062199831008911,46.237998962402344,6.075599670410156
1682880512921222400,9.879222412109375,-2.232599973678589,46.176998138427734,5.868199825286865
1682880512931223000,9.88922314453125,-3.4038000106811523,46.420997619628906,6.7221999168396
1682880512941223200,9.89922314453125,-3.025599956512451,46.94559860229492,6.221999645233154
1682880512951222000,9.909221923828126,-2.940199851989746,46.76259994506836,6.112199783325195
1682880512961223200,9.91922314453125,-3.4282000064849854,46.76259994506836,6.3196001052856445
1682880512971223600,9.9292236328125,-3.110999822616577,47.6531982421875,6.7953996658325195
1682880512981221400,9.939221435546875,-4.526199817657471,47.2505989074707,6.246399879455566
1682880512991223300,9.949223388671875,-3.8795998096466064,47.44580078125,6.575799942016602
1682880513001231600,9.959231689453125,-4.428599834442139,47.27499771118164,7.393199920654297
1682880513011213000,9.969213134765624,-5.489999771118164,47.4213981628418,7.832399845123291
1682880513021223700,9.9792236328125,-6.063399791717529,47.57999801635742,8.052000045776367
1682880513031232500,9.989232421875,-6.3805999755859375,47.8484001159668,8.796199798583984
1682880513041223200,9.99922314453125,-6.5269999504089355,47.33599853515625,9.503799438476562
1682880513051223300,10.009223388671876,-5.001999855041504,47.6531982421875,9.821000099182129
1682880513061213000,10.019212890625,-6.039000034332275,47.8849983215332,9.942999839782715
1682880513071223600,10.0292236328125,-7.332200050354004,47.59219741821289,10.662799835205078
1682880513081223200,10.03922314453125,-9.08899974822998,48.3120002746582,9.979599952697754
1682880513091223300,10.049223388671875,-11.272799491882324,48.141197204589844,8.930399894714355
1682880513101212700,10.059212646484376,-13.566399574279785,48.04359817504883,7.783599853515625
1682880513111212500,10.069212646484376,-14.847399711608887,48.69020080566406,6.880799770355225
1682880513121223400,10.079223388671876,-16.701799392700195,47.909400939941406,5.697400093078613
1682880513131223600,10.0892236328125,-18.019399642944336,47.73859786987305,3.6965999603271484
1682880513141214200,10.099214111328125,-19.105199813842773,48.116798400878906,2.36680006980896
1682880513151223300,10.109223388671875,-19.8981990814209,48.15340042114258,0.5978000164031982
1682880513161223200,10.11922314453125,-21.52079963684082,47.811798095703125,-0.5733999609947205
1682880513171221800,10.1292216796875,-23.81439971923828,47.189598083496094,-2.061800003051758
1682880513181223200,10.13922314453125,-24.680599212646484,46.43320083618164,-3.6721999645233154
1682880513191225300,10.149225341796875,-26.19339942932129,46.530799865722656,-5.551000118255615
1682880513201223200,10.15922314453125,-27.88920021057129,45.42060089111328,-6.136600017547607
1682880513211223300,10.169223388671876,-27.76719856262207,45.31079864501953,-7.185800075531006
1682880513221214200,10.179214111328125,-27.632999420166016,45.29859924316406,-8.027600288391113
1682880513231223600,10.1892236328125,-28.47480010986328,45.164398193359375,-9.284199714660645
1682880513241223200,10.19922314453125,-28.45039939880371,45.24979782104492,-9.381799697875977
1682880513251212500,10.209212646484374,-27.84039878845215,44.73740005493164,-9.942999839782715
1682880513261212700,10.219212646484374,-27.09619903564453,45.274200439453125,-10.223599433898926
1682880513271223300,10.229223388671874,-27.657400131225586,45.530399322509766,-9.57699966430664
1682880513281214000,10.2392138671875,-26.82779884338379,45.37179946899414,-10.113800048828125
1682880513291223600,10.2492236328125,-27.303600311279297,45.45719909667969,-9.686800003051758
1682880513301207600,10.25920751953125,-26.376399993896484,46.36000061035156,-9.528200149536133
1682880513311218700,10.26921875,-27.44999885559082,45.88419723510742,-9.552599906921387
1682880513321223200,10.27922314453125,-26.376399993896484,46.26239776611328,-10.27239990234375
1682880513331213000,10.289213134765625,-24.595199584960938,46.56739807128906,-10.675000190734863
1682880513341213200,10.299213134765624,-24.753799438476562,47.543399810791016,-9.674599647521973
1682880513351223600,10.3092236328125,-22.630998611450195,47.77519989013672,-9.869799613952637
1682880513361223200,10.31922314453125,-22.326000213623047,47.933799743652344,-11.016599655151367
1682880513371223300,10.329223388671876,-22.338199615478516,47.94599914550781,-10.491999626159668
1682880513381222000,10.339221923828125,-20.996198654174805,48.40959930419922,-10.992199897766113
1682880513391223300,10.349223388671875,-19.593198776245117,48.714599609375,-10.979999542236328
1682880513401223400,10.359223388671875,-20.23979949951172,48.507198333740234,-11.406999588012695
1682880513411212800,10.369212890625,-19.53219985961914,48.873199462890625,-11.90719985961914
1682880513421223200,10.37922314453125,-19.044198989868164,48.98299789428711,-11.382599830627441
1682880513431223300,10.389223388671875,-18.666000366210938,49.09280014038086,-10.748199462890625
1682880513441212700,10.399212646484376,-16.665199279785156,49.43439865112305,-9.78439998626709
1682880513451223600,10.4092236328125,-18.458599090576172,49.556400299072266,-9.979599952697754
1682880513461213000,10.419212890625,-17.409399032592773,49.946800231933594,-9.027999877929688
1682880513471223300,10.429223388671875,-18.55620002746582,50.27619934082031,-8.588799476623535
1682880513481223200,10.43922314453125,-19.776199340820312,50.34939956665039,-7.429800033569336
1682880513491234300,10.449234375,-21.447599411010742,50.263999938964844,-4.3919997215271
1682880513501223400,10.459223388671875,-21.350000381469727,49.763797760009766,-3.6965999603271484
1682880513511223300,10.469223388671875,-21.17919921875,50.05659866333008,-2.635200023651123
1682880513521223200,10.47922314453125,-21.020599365234375,50.33720016479492,-1.354200005531311
1682880513531223300,10.489223388671874,-21.984399795532227,49.885799407958984,-1.1712000370025635
1682880513541223200,10.49922314453125,-21.423198699951172,50.251800537109375,-0.8417999744415283
1682880513551213000,10.509213134765625,-20.89859962463379,50.459197998046875,-0.20739999413490295
1682880513561223400,10.519223388671875,-21.313400268554688,50.27619934082031,0.09759999811649323
1682880513571212800,10.529212890625,-21.52079963684082,50.446998596191406,0
1682880513581223200,10.53922314453125,-21.20359992980957,50.60559844970703,-1.1345999240875244
1682880513591223300,10.549223388671875,-22.411399841308594,50.129798889160156,-1.3664000034332275
1682880513601213000,10.559212890625,-22.264999389648438,50.10540008544922,-2.525399923324585
1682880513611223600,10.5692236328125,-22.25279998779297,50.09320068359375,-3.049999952316284
1682880513621223700,10.5792236328125,-23.19219970703125,49.61739730834961,-4.013800144195557
1682880513631223300,10.589223388671876,-24.13159942626953,49.129398345947266,-4.770199775695801
1682880513641223200,10.59922314453125,-24.619600296020508,49.22699737548828,-3.9284000396728516
1682880513651213800,10.6092138671875,-24.643999099731445,50.080997467041016,-4.3919997215271
1682880513661223400,10.619223388671875,-24.338998794555664,49.312400817871094,-4.440799713134766
1682880513671223600,10.6292236328125,-25.412599563598633,49.36119842529297,-4.648200035095215
1682880513681213200,10.639213134765624,-25.302799224853516,49.26359939575195,-5.282599925994873
1682880513691223000,10.64922314453125,-25.924999237060547,49.04399871826172,-6.343999862670898
1682880513701223200,10.65922314453125,-25.546798706054688,48.73899841308594,-5.319200038909912
1682880513711213000,10.669213134765625,-26.19339942932129,48.84880065917969,-7.075999736785889
1682880513721223400,10.679223388671875,-27.279199600219727,48.38520050048828,-7.319999694824219
1682880513731220200,10.68922021484375,-28.987199783325195,47.287200927734375,-7.271199703216553
1682880513741223200,10.69922314453125,-29.377599716186523,47.189598083496094,-7.173599720001221
1682880513751223300,10.709223388671875,-30.0851993560791,47.2505989074707,-7.478600025177002
1682880513761209000,10.719208984375,-30.987998962402344,46.530799865722656,-7.21019983291626
1682880513771223600,10.7292236328125,-30.646398544311523,46.555198669433594,-6.2708001136779785
1682880513781223200,10.73922314453125,-31.561399459838867,46.26239776611328,-6.173199653625488
1682880513791212500,10.749212646484375,-30.878198623657227,46.12820053100586,-5.563199996948242
1682880513801223200,10.75922314453125,-31.988399505615234,45.579200744628906,-5.282599925994873
1682880513811228000,10.769227783203124,-31.878599166870117,46.115997314453125,-4.404200077056885
1682880513821212700,10.779212646484375,-32.14699935913086,46.12820053100586,-3.6721999645233154
1682880513831223600,10.7892236328125,-32.75699996948242,46.225799560546875,-2.305799961090088
1682880513841213700,10.799213623046874,-31.695598602294922,46.176998138427734,-1.5859999656677246
1682880513851223300,10.809223388671874,-31.634599685668945,46.555198669433594,-0.5123999714851379
1682880513861223200,10.81922314453125,-30.914798736572266,46.68939971923828,0.8539999723434448
1682880513871213000,10.829213134765626,-31.085599899291992,47.04319763183594,1.3907999992370605
1682880513881223200,10.83922314453125,-31.305198669433594,47.226200103759766,2.452199935913086
1682880513891220200,10.84922021484375,-30.0851993560791,47.37260055541992,3.1842000484466553
1682880513901223400,10.859223388671875,-29.74359893798828,47.40919876098633,4.550600051879883
1682880513911223300,10.869223388671875,-29.902198791503906,47.750797271728516,4.56279993057251
1682880513921213000,10.879212890625,-29.621599197387695,47.933799743652344,4.892199993133545
1682880513931223600,10.8892236328125,-28.584598541259766,48.33639907836914,5.746200084686279
1682880513941223200,10.89922314453125,-28.79199981689453,48.5193977355957,6.3927998542785645
1682880513951212800,10.909212890625,-26.91320037841797,48.83659744262695,6.612400054931641
1682880513961223200,10.91922314453125,-26.43739891052246,48.873199462890625,7.45419979095459
1682880513971222800,10.929222900390625,-25.351598739624023,49.43439865112305,7.893399715423584
1682880513981205200,10.939205322265625,-24.48539924621582,49.556400299072266,8.527799606323242
1682880513991212500,10.949212646484375,-23.033599853515625,50.04439926147461,8.552199363708496
1682880514001219600,10.959219482421876,-22.91160011291504,50.154197692871094,9.394000053405762
1682880514011223300,10.969223388671875,-21.325599670410156,50.72760009765625,9.528200149536133
1682880514021223200,10.97922314453125,-21.008399963378906,50.569000244140625,9.833199501037598
1682880514031217200,10.989217041015625,-20.50819969177246,50.67879867553711,10.150400161743164
1682880514041232000,10.99923193359375,-19.78839874267578,51.13019943237305,9.869799613952637
1682880514051223600,11.0092236328125,-19.434598922729492,51.142398834228516,10.284600257873535
1682880514061223200,11.01922314453125,-18.019399642944336,51.43519973754883,9.881999969482422
1682880514071212800,11.029212890625,-17.55579948425293,52.42340087890625,10.467599868774414
1682880514081222100,11.03922216796875,-17.738800048828125,51.72800064086914,11.053199768066406
1682880514091212800,11.049212890625,-17.26300048828125,51.65480041503906,10.943399429321289
1682880514101223700,11.0592236328125,-16.95800018310547,51.92319869995117,10.955599784851074
1682880514111221000,11.069220947265626,-16.518798828125,51.776798248291016,11.358200073242188
1682880514121223200,11.07922314453125,-17.17759895324707,51.581600189208984,11.345999717712402
1682880514131223000,11.08922314453125,-17.26300048828125,51.76459884643555,11.882800102233887
1682880514141213000,11.099212890625,-17.128799438476562,51.86219787597656,11.992599487304688
1682880514151223600,11.1092236328125,-17.067800521850586,51.59379959106445,11.870599746704102
1682880514161223400,11.119223388671875,-17.433799743652344,51.69139862060547,12.932000160217285
1682880514171203000,11.129203125,-18.23900032043457,51.31319808959961,12.907599449157715
1682880514181223200,11.13922314453125,-18.507400512695312,50.80080032348633,13.602999687194824
1682880514191220200,11.14922021484375,-18.8612003326416,50.886199951171875,14.139800071716309
1682880514201223400,11.159223388671874,-18.104799270629883,50.99599838256836,14.042200088500977
1682880514211223600,11.1692236328125,-17.88520050048828,50.91059875488281,14.029999732971191
1682880514221212700,11.179212646484375,-17.87299919128418,51.0203971862793,14.664400100708008
1682880514231223300,11.189223388671875,-18.17799949645996,51.264400482177734,14.469200134277344
1682880514241223200,11.19922314453125,-19.117399215698242,51.31319808959961,14.054399490356445
1682880514251212800,11.209212890625,-21.752599716186523,50.34939956665039,13.480999946594238
1682880514261223700,11.2192236328125,-24.18039894104004,50.67879867553711,11.94379997253418
1682880514271211300,11.229211181640625,-25.680999755859375,49.824798583984375,10.223599433898926
1682880514281223200,11.23922314453125,-27.54759979248047,49.37339782714844,8.32040023803711
1682880514291223300,11.249223388671876,-28.90180015563965,49.65399932861328,6.770999908447266
1682880514301220600,11.259220703125,-29.279998779296875,49.43439865112305,5.2947998046875
1682880514311223600,11.2692236328125,-31.17099952697754,49.43439865112305,3.6233999729156494
1682880514321223400,11.279223388671875,-31.707799911499023,48.507198333740234,1.6957999467849731
1682880514331223300,11.289223388671875,-32.976600646972656,47.56779861450195,-0.24399998784065247
1682880514341219800,11.2992197265625,-33.928199768066406,46.982200622558594,-1.524999976158142
1682880514351213000,11.309213134765624,-34.7578010559082,46.40879821777344,-2.915799856185913
1682880514361223700,11.3192236328125,-34.5015983581543,46.29899978637695,-4.282199859619141
1682880514371213000,11.329213134765626,-36.148597717285156,46.40879821777344,-5.22160005569458
1682880514381205000,11.339205078125,-35.196998596191406,45.71339797973633,-6.417200088500977
1682880514391223300,11.349223388671875,-35.44099807739258,46.12820053100586,-7.014999866485596
1682880514401223200,11.35922314453125,-35.11159896850586,45.969600677490234,-7.234600067138672
1682880514411213000,11.369213134765625,-34.17219924926758,46.75040054321289,-8.552199363708496
1682880514421223700,11.3792236328125,-34.41619873046875,46.75040054321289,-8.234999656677246
1682880514431223300,11.389223388671875,-33.305999755859375,47.189598083496094,-9.674599647521973
1682880514441223200,11.39922314453125,-32.8302001953125,48.16559982299805,-9.723400115966797
1682880514451223300,11.409223388671874,-31.585800170898438,48.28759765625,-9.821000099182129
1682880514461216500,11.419216552734374,-30.0851993560791,49.556400299072266,-9.74779987335205
1682880514471212800,11.429212890625,-28.047800064086914,49.95899963378906,-9.723400115966797
1682880514481223200,11.43922314453125,-27.47439956665039,51.38639831542969,-9.333000183105469
1682880514491211800,11.449211669921874,-25.705398559570312,51.70359802246094,-9.210999488830566
1682880514501223200,11.45922314453125,-25.607799530029297,51.61819839477539,-9.003600120544434
1682880514511223300,11.469223388671875,-25.229598999023438,52.25259780883789,-8.344799995422363
1682880514521213000,11.479212890625,-25.668800354003906,52.411197662353516,-8.747400283813477
1682880514531223600,11.4892236328125,-25.339399337768555,52.24039840698242,-8.869400024414062
1682880514541220600,11.499220703125,-25.53459930419922,51.98419952392578,-8.564399719238281
1682880514551223300,11.509223388671876,-25.924999237060547,52.411197662353516,-8.222800254821777
1682880514561223200,11.51922314453125,-26.18120002746582,51.886600494384766,-7.94219970703125
1682880514571212500,11.529212646484375,-27.79159927368164,51.76459884643555,-7.417599678039551
1682880514581223200,11.53922314453125,-27.315799713134766,51.776798248291016,-7.112599849700928
1682880514591223300,11.549223388671875,-26.388599395751953,52.70399856567383,-6.014599800109863
1682880514601223200,11.55922314453125,-26.315399169921875,52.106197357177734,-5.209399700164795
1682880514611223300,11.569223388671874,-27.108400344848633,52.87479782104492,-5.062999725341797
1682880514621226000,11.57922607421875,-25.619998931884766,53.106597900390625,-4.209000110626221
1682880514631223600,11.5892236328125,-25.632200241088867,53.02119827270508,-4.31879997253418
1682880514641223700,11.5992236328125,-25.070999145507812,53.49699783325195,-2.940199851989746
1682880514651224600,11.609224609375,-23.57040023803711,54.155799865722656,-3.2086000442504883
1682880514661223200,11.61922314453125,-22.88719940185547,54.52179718017578,-2.976799964904785
1682880514671215400,11.62921533203125,-22.85059928894043,54.70479965209961,-2.452199935913086
1682880514681213000,11.639212890625,-21.1914005279541,55.107398986816406,-2.537600040435791
1682880514691223600,11.6492236328125,-22.167400360107422,55.08300018310547,-2.427799940109253
1682880514701223200,11.65922314453125,-21.618398666381836,54.8390007019043,-2.342400074005127
1682880514711223300,11.669223388671876,-21.83799934387207,55.02199935913086,-1.6957999467849731
1682880514721223200,11.67922314453125,-22.935998916625977,55.40019989013672,-2.513200044631958
1682880514731235800,11.68923583984375,-21.606199264526367,55.46120071411133,-1.8787999153137207
1682880514741223700,11.6992236328125,-23.448400497436523,54.77799987792969,-2.342400074005127
1682880514751223600,11.7092236328125,-23.143400192260742,55.4734001159668,-2.818199872970581
1682880514761222000,11.719221923828124,-23.021400451660156,55.058597564697266,-2.317999839782715
1682880514771232800,11.729232666015625,-23.667999267578125,55.2781982421875,-3.037799835205078
1682880514781214200,11.739214111328126,-24.119400024414062,54.91219711303711,-3.2695999145507812
1682880514791212500,11.749212646484375,-25.1929988861084,54.863399505615234,-4.111400127410889
1682880514801213200,11.759213134765625,-25.46139907836914,54.2411994934082,-4.56279993057251
1682880514811212500,11.769212646484375,-24.570798873901367,54.97319793701172,-4.0991997718811035
1682880514821213200,11.779213134765625,-25.302799224853516,54.851200103759766,-4.843400001525879
1682880514831223600,11.7892236328125,-25.022199630737305,54.924400329589844,-5.770599842071533
1682880514841213000,11.799212890625,-24.778200149536133,55.0463981628418,-4.721399784088135
1682880514851223600,11.8092236328125,-24.985599517822266,55.21719741821289,-4.611599922180176
1682880514861225000,11.819224853515625,-26.376399993896484,54.89999771118164,-4.940999984741211
1682880514871223600,11.8292236328125,-26.449600219726562,54.65599822998047,-4.31879997253418
1682880514881223200,11.83922314453125,-27.669599533081055,54.61940002441406,-4.31879997253418
1682880514891208400,11.84920849609375,-26.85219955444336,54.46080017089844,-4.538399696350098
1682880514901223700,11.8592236328125,-27.44999885559082,54.534000396728516,-4.428599834442139
1682880514911223600,11.8692236328125,-27.071800231933594,55.058597564697266,-4.611599922180176
1682880514921212700,11.879212646484374,-27.267000198364258,54.802398681640625,-4.209000110626221
1682880514931223300,11.889223388671875,-27.901399612426758,54.59499740600586,-5.05079984664917
1682880514941223200,11.89922314453125,-27.462200164794922,54.863399505615234,-5.355799674987793
1682880514951213800,11.9092138671875,-28.80419921875,54.70479965209961,-6.7221999168396
1682880514961223400,11.919223388671876,-28.1697998046875,54.28999710083008,-6.8441996574401855
1682880514971223300,11.929223388671875,-29.633798599243164,54.2411994934082,-6.7465996742248535
1682880514981223400,11.939223388671875,-29.47519874572754,54.424198150634766,-6.734399795532227
1682880514991223300,11.949223388671875,-29.023799896240234,54.26559829711914,-6.953999996185303
1682880515001211100,11.959211181640624,-29.49959945678711,54.2411994934082,-7.478600025177002
1682880515011223600,11.9692236328125,-30.14620018005371,54.14360046386719,-6.5391998291015625
1682880515021223200,11.97922314453125,-29.279998779296875,54.790199279785156,-6.295199871063232
1682880515031212500,11.989212646484376,-28.80419921875,55.33919906616211,-5.636399745941162
1682880515041223400,11.999223388671876,-28.1697998046875,55.448997497558594,-5.319200038909912
1682880515051223300,12.009223388671876,-27.79159927368164,55.65639877319336,-4.367599964141846
1682880515061213700,12.019213623046875,-26.559398651123047,55.79059982299805,-3.7331998348236084
1682880515071215900,12.0292158203125,-27.559799194335938,56.20539855957031,-3.1842000484466553
1682880515081223200,12.03922314453125,-27.998998641967773,55.94919967651367,-2.671799898147583
1682880515091223300,12.049223388671875,-27.998998641967773,56.04679870605469,-2.037400007247925
1682880515101223200,12.05922314453125,-27.876998901367188,56.058998107910156,-1.5127999782562256
1682880515111212800,12.069212890625,-28.096599578857422,55.82719802856445,0.14640000462532043
1682880515121223200,12.07922314453125,-28.45039939880371,55.485599517822266,1.1712000370025635
1682880515131223600,12.0892236328125,-29.231199264526367,55.29039764404297,1.573799967765808
1682880515141223200,12.09922314453125,-29.53619956970215,55.131797790527344,2.720599889755249
1682880515151223300,12.109223388671875,-29.633798599243164,54.88779830932617,3.8551998138427734
1682880515161212700,12.119212646484375,-30.18280029296875,54.72919845581055,5.197199821472168
1682880515171212800,12.129212890625,-30.18280029296875,54.72919845581055,5.197199821472168
1682880515181223200,12.13922314453125,-31.085599899291992,54.216800689697266,7.051599979400635
1682880515191212800,12.149212890625,-30.378000259399414,54.37540054321289,9.564800262451172
1682880515201223200,12.15922314453125,-29.414199829101562,54.4119987487793,10.089399337768555
1682880515211223300,12.169223388671876,-28.84079933166504,54.88779830932617,11.163000106811523
1682880515221212700,12.179212646484375,-28.023399353027344,55.25379943847656,11.07759952545166
1682880515231223600,12.1892236328125,-27.86479949951172,55.436798095703125,11.089799880981445
1682880515241223700,12.1992236328125,-26.77899932861328,55.99799728393555,11.651000022888184
1682880515251223300,12.209223388671875,-25.4247989654541,55.61980056762695,12.346399307250977
1682880515261223200,12.21922314453125,-24.58300018310547,56.071197509765625,11.858399391174316
1682880515271214600,12.229214599609374,-23.448400497436523,57.32780075073242,12.138999938964844
1682880515281223700,12.2392236328125,-23.13119888305664,57.181400299072266,12.956399917602539
1682880515291223300,12.249223388671876,-22.54559898376465,57.53519821166992,11.833999633789062
1682880515301207300,12.259207275390626,-20.92300033569336,57.754798889160156,12.151199340820312
1682880515311225900,12.269225830078126,-21.374399185180664,58.34040069580078,11.45580005645752
1682880515321223200,12.27922314453125,-20.50819969177246,58.35260009765625,10.93120002746582
1682880515331213000,12.289213134765625,-19.312599182128906,58.73080062866211,10.540800094604492
1682880515341223700,12.2992236328125,-20.947399139404297,58.93819808959961,9.93079948425293
1682880515351216000,12.309216064453125,-20.92300033569336,59.023597717285156,9.833199501037598
1682880515361223200,12.31922314453125,-20.593599319458008,59.37739944458008,9.74779987335205
1682880515371223300,12.329223388671876,-21.032798767089844,59.42619705200195,8.186200141906738
1682880515381213000,12.339212890625,-21.49639892578125,59.49939727783203,8.503399848937988
1682880515391223600,12.3492236328125,-21.83799934387207,59.462799072265625,7.344399929046631
1682880515401223200,12.35922314453125,-22.094200134277344,59.462799072265625,7.45419979095459
1682880515411223300,12.369223388671875,-20.983999252319336,59.902000427246094,6.221999645233154
1682880515421223200,12.37922314453125,-22.20400047302246,60.402198791503906,6.466000080108643
1682880515431223600,12.3892236328125,-22.43579864501953,60.26799774169922,4.574999809265137
1682880515441223700,12.3992236328125,-21.703800201416016,60.29240036010742,4.684800148010254
1682880515451223800,12.409223876953124,-22.50899887084961,60.43879699707031,4.379799842834473
1682880515461213000,12.419212890625,-22.52120018005371,60.75600051879883,3.3550000190734863
1682880515471212500,12.429212646484375,-22.264999389648438,60.75600051879883,2.830399990081787
1682880515481223200,12.43922314453125,-21.87459945678711,60.853599548339844,2.732800006866455
1682880515491213000,12.449213134765625,-22.52120018005371,60.64619827270508,1.9886000156402588
1682880515501223400,12.459223388671875,-22.008800506591797,60.743797302246094,1.8909999132156372
1682880515511229700,12.469229736328124,-22.313798904418945,61,2.013000011444092
1682880515521223200,12.47922314453125,-22.15519905090332,60.1338005065918,2.061800003051758
1682880515531223300,12.489223388671874,-20.471599578857422,61.048797607421875,1.4883999824523926
1682880515541212700,12.499212646484375,-19.434598922729492,61.34159851074219,1.2932000160217285
1682880515551223600,12.5092236328125,-18.141399383544922,61.52459716796875,0.14640000462532043
1682880515561223700,12.5192236328125,-16.88479995727539,61.6343994140625,-1.0003999471664429
1682880515571212800,12.529212890625,-17.994998931884766,61.4025993347168,-2.269199848175049
1682880515581223200,12.53922314453125,-19.446800231933594,60.60960006713867,-4.916599750518799
1682880515591223300,12.549223388671875,-19.739599227905273,59.68239974975586,-6.96619987487793
1682880515601213000,12.559212890625,-22.789600372314453,58.74300003051758,-9.942999839782715
1682880515611223800,12.569223876953124,-24.058399200439453,57.8036003112793,-11.980400085449219
1682880515621213000,12.579212890625,-25.266199111938477,56.168800354003906,-13.017399787902832
1682880515631223300,12.589223388671876,-27.181598663330078,55.02199935913086,-15.384200096130371
1682880515641223400,12.599223388671875,-27.986799240112305,54.0093994140625,-16.799400329589844
1682880515651212800,12.609212890625,-29.206798553466797,52.38679885864258,-17.409399032592773
1682880515661223400,12.619223388671875,-29.719200134277344,51.13019943237305,-18.434200286865234
1682880515671217200,12.629217041015625,-30.573200225830078,48.99519729614258,-19.702999114990234
1682880515681223400,12.639223388671875,-31.427200317382812,48.33639907836914,-20.471599578857422
1682880515691223300,12.649223388671874,-31.10999870300293,46.494197845458984,-21.85019874572754
1682880515701207000,12.65920703125,-30.378000259399414,45.9818000793457,-22.399200439453125
1682880515711223300,12.669223388671876,-30.341400146484375,45.530399322509766,-23.15559959411621
1682880515721223700,12.6792236328125,-29.267799377441406,44.957000732421875,-23.411800384521484
1682880515731212800,12.689212890625,-28.938400268554688,45.42060089111328,-22.43579864501953
1682880515741223400,12.699223388671875,-28.42599868774414,45.0911979675293,-21.728199005126953
1682880515751223300,12.709223388671875,-27.083999633789062,45.03020095825195,-22.56999969482422
1682880515761213000,12.719212890625,-26.242198944091797,45.38399887084961,-23.704599380493164
1682880515771207200,12.729207275390625,-24.668399810791016,45.43280029296875,-23.594799041748047
1682880515781223700,12.7392236328125,-24.643999099731445,44.99359893798828,-23.729000091552734
1682880515791223300,12.749223388671876,-24.143798828125,44.99359893798828,-24.570798873901367
1682880515801223200,12.75922314453125,-24.52199935913086,43.956600189208984,-23.899799346923828
1682880515811213000,12.769213134765625,-23.83880043029785,43.70039749145508,-24.643999099731445
1682880515821223700,12.7792236328125,-24.52199935913086,42.882999420166016,-24.80259895324707
1682880515831223600,12.7892236328125,-23.436199188232422,42.931800842285156,-24.16819953918457
1682880515841204700,12.799204833984374,-25.070999145507812,42.71220016479492,-23.86319923400879
1682880515851223300,12.809223388671874,-24.52199935913086,42.9927978515625,-23.643600463867188
1682880515861223400,12.819223388671874,-25.2052001953125,42.72439956665039,-23.240999221801758
1682880515871212800,12.829212890625,-24.643999099731445,42.48040008544922,-23.460599899291992
1682880515881223200,12.83922314453125,-24.338998794555664,42.846397399902344,-22.81399917602539
1682880515891233800,12.84923388671875,-24.461000442504883,42.43159866333008,-21.80139923095703
