time,seconds_elapsed,z,y,x
1684594520211378000,0.1693779296875,0.2252788543701172,-0.7203261852264404,1.0061314105987549
1684594520228261600,0.18626171875,0.9373445510864258,-1.759907603263855,0.17057740688323975
1684594520245135400,0.20313525390625,0.6943550109863281,-2.868199348449707,-0.6452534198760986
1684594520261993700,0.21999365234375,0.9435091018676758,-3.6327714920043945,-1.9194549322128296
1684594520278880800,0.236880859375,0.606328010559082,-3.6881775856018066,-2.2651171684265137
1684594520295752000,0.253751953125,-1.093073844909668,-4.0994462966918945,-1.9530160427093506
1684594520312623900,0.270623779296875,-3.5363988876342773,-3.56661319732666,-2.321291446685791
1684594520329494800,0.287494873046875,-4.299091339111328,-2.5736196041107178,-2.874990463256836
1684594520346371600,0.30437158203125,8.13676929473877,3.1764111518859863,-2.525536060333252
1684594520363242200,0.3212421875,0.4013214111328125,-0.13234806060791016,-2.7885725498199463
1684594520380103400,0.338103515625,0.5222711563110352,-4.991116523742676,-3.3317787647247314
1684594520396987400,0.3549873046875,0.5286779403686523,-3.766054630279541,-2.706047534942627
1684594520413859300,0.371859375,-1.0388131141662598,-2.2311480045318604,-2.8302500247955322
1684594520430732800,0.38873291015625,0.3406400680541992,-1.373302936553955,-2.798870325088501
1684594520447604700,0.405604736328125,0.19695281982421875,-2.6756131649017334,-3.9754531383514404
1684594520464478000,0.42247802734375,-0.24335193634033203,-3.554175853729248,-4.267759799957275
1684594520481349600,0.439349609375,-0.5077695846557617,-2.6616873741149902,-2.9009156227111816
1684594520498222800,0.456222900390625,-0.35219287872314453,-2.672727108001709,-4.013072967529297
1684594520515095000,0.473094970703125,3.4485902786254883,-2.229640007019043,-5.242129325866699
1684594520531957500,0.48995751953125,3.784910202026367,-0.9343388080596924,-4.393760681152344
1684594520548840400,0.50684033203125,-1.522752285003662,1.929952621459961,-1.7283942699432373
1684594520565718800,0.52371875,0.6259193420410156,0.7379798889160156,-5.354961395263672
1684594520582585300,0.54058544921875,-3.942413806915283,-2.895983934402466,-3.7204856872558594
1684594520599443200,0.557443115234375,-7.198403358459473,-4.368619441986084,-0.8748444318771362
1684594520616339700,0.574339599609375,-8.015307426452637,-5.40483283996582,1.1795432567596436
1684594520633206300,0.591206298828125,5.043783187866211,-6.962553977966309,4.571329116821289
1684594520650073900,0.608073974609375,-6.266846656799316,-3.8017678260803223,-3.0205776691436768
1684594520666951200,0.624951171875,-4.418630599975586,-6.47620153427124,-4.60632848739624
1684594520683821000,0.641821044921875,3.717331886291504,-6.468826770782471,-1.8849976062774658
1684594520700694000,0.658694091796875,-0.16457366943359375,-0.92824387550354,1.1125645637512207
1684594520717563400,0.6755634765625,-1.333724021911621,-0.13823223114013672,0.24624133110046387
1684594520734448600,0.69244873046875,0.22933673858642578,-2.9794812202453613,0.9492192268371582
1684594520751311600,0.7093115234375,-1.4101686477661133,-4.047021865844727,0.6276202201843262
1684594520768184600,0.7261845703125,-5.7636823654174805,-3.734360933303833,-0.9231901168823242
1684594520785056800,0.743056884765625,-3.051180839538574,-4.927837371826172,-3.8725547790527344
1684594520801929700,0.7599296875,-2.814208984375,-1.660841941833496,-4.205289840698242
1684594520818801700,0.7768017578125,-2.0032663345336914,-1.2274022102355957,-0.9735875129699707
1684594520835674600,0.793674560546875,-0.4687776565551758,-2.4826149940490723,-0.9849534034729004
1684594520852546800,0.810546875,-0.369232177734375,-3.0327465534210205,-2.1307878494262695
1684594520869420300,0.827420166015625,0.43335533142089844,-3.628221035003662,-2.866464138031006
1684594520886285000,0.84428515625,0.18491268157958984,-3.22837495803833,-2.1994810104370117
1684594520903165400,0.86116552734375,0.02348470687866211,-1.8557300567626953,-1.2459254264831543
1684594520920044000,0.8780439453125,-0.6687183380126953,-1.58797287940979,-1.42863130569458
1684594520936910000,0.89491015625,0.2343606948852539,-2.3395144939422607,-1.4916300773620605
1684594520953782500,0.911782470703125,0.9520778656005859,-2.451018810272217,-1.6577653884887695
1684594520970654000,0.928654052734375,0.8050928115844727,-2.1193883419036865,-1.2779817581176758
1684594520987529700,0.94552978515625,0.28808116912841797,-2.235206127166748,-1.315140724182129
1684594521004401200,0.962401123046875,-0.3295578956604004,-1.8060829639434814,-0.9261431694030762
1684594521021271800,0.979271728515625,-0.30600500106811523,-2.1764049530029297,-1.0910873413085938
1684594521038147600,0.996147705078125,0.9003915786743164,-2.1602516174316406,-1.9228696823120117
1684594521055018000,1.01301806640625,1.1000709533691406,-1.4936864376068115,-2.0670270919799805
1684594521071891200,1.02989111328125,0.8688430786132812,-1.8240011930465698,-1.8692350387573242
1684594521088763600,1.046763671875,0.2653665542602539,-2.326312780380249,-1.5779080390930176
1684594521105636900,1.063636962890625,0.5885658264160156,-1.7427268028259277,-1.500577449798584
1684594521122508500,1.080508544921875,0.3996238708496094,-1.7373558282852173,-1.4450712203979492
1684594521139382000,1.097382080078125,-1.0237951278686523,-2.3069565296173096,-1.7384285926818848
1684594521156254200,1.114254150390625,-1.3985199928283691,-1.0517765283584595,-1.702540397644043
1684594521173126700,1.131126708984375,-1.1638398170471191,-0.9818880558013916,-1.529099464416504
1684594521189998800,1.147998779296875,-1.0714282989501953,-1.7185310125350952,-1.4443650245666504
1684594521206878200,1.164878173828125,-1.020235538482666,-2.4542510509490967,-1.128931999206543
1684594521223744300,1.181744140625,-0.5748805999755859,-2.0163521766662598,-0.5333538055419922
1684594521240629200,1.198629150390625,-0.993560791015625,-2.3314273357391357,-1.0557990074157715
1684594521257492200,1.2154921875,-1.158942699432373,-2.4140965938568115,-1.480912208557129
1684594521274360000,1.232360107421875,-1.3563852310180664,-2.365186929702759,-1.853684902191162
1684594521291237400,1.2492373046875,-1.234142780303955,-2.1960055828094482,-2.321600914001465
1684594521308104400,1.2661044921875,-1.3204264640808105,-1.9193994998931885,-2.3197498321533203
1684594521324980000,1.28297998046875,-1.4561576843261719,-2.3950273990631104,-2.4212546348571777
1684594521341863000,1.29986279296875,-1.1884937286376953,-3.4929516315460205,-2.441803455352783
1684594521358725400,1.316725341796875,-2.2595391273498535,-4.595606327056885,-2.8286733627319336
1684594521375595500,1.333595458984375,-1.91721773147583,-4.615622520446777,-2.9789485931396484
1684594521392473000,1.35047314453125,0.2259521484375,-2.771402359008789,-3.3230175971984863
1684594521409343200,1.36734326171875,-0.9479537010192871,-2.8141634464263916,-1.592747688293457
1684594521426215400,1.38421533203125,-1.2279062271118164,-6.448493957519531,-2.2480053901672363
1684594521443088600,1.401088623046875,-0.02610015869140625,-5.722434043884277,-3.0538878440856934
1684594521459961000,1.417961181640625,-1.5162601470947266,-5.375391006469727,-2.497941017150879
1684594521476834000,1.434833984375,-2.1695547103881836,-5.933420181274414,-1.8182029724121094
1684594521493705700,1.451705810546875,-3.9266953468322754,-4.912871360778809,-1.9776978492736816
1684594521510579000,1.468578857421875,-4.2123894691467285,-5.003334999084473,-2.68870210647583
1684594521527439600,1.485439697265625,-2.7233269214630127,-5.203843593597412,-3.2319412231445312
1684594521544323800,1.50232373046875,-1.7467575073242188,-4.976116180419922,-2.600661277770996
1684594521561185800,1.519185791015625,-1.9087159633636475,-4.8879194259643555,-2.0057239532470703
1684594521578069500,1.536069580078125,-2.8928885459899902,-4.5236711502075195,-1.7717857360839844
1684594521594941400,1.55294140625,-3.2001943588256836,-4.762358665466309,-1.7716064453125
1684594521611810800,1.569810791015625,-2.628530502319336,-5.49510383605957,-1.2475786209106445
1684594521628691000,1.58669091796875,-2.381998062133789,-5.6284966468811035,-0.14495086669921875
1684594521645559600,1.6035595703125,-2.205674171447754,-5.5030517578125,0.8614845275878906
1684594521662431700,1.620431640625,-1.3732210397720337,-5.65756893157959,1.5317716598510742
1684594521679305200,1.63730517578125,-0.20630300045013428,-6.172019958496094,2.1372599601745605
1684594521696177200,1.65417724609375,1.0437252521514893,-6.774618625640869,1.5228333473205566
1684594521713050600,1.671050537109375,0.9989961981773376,-6.482144355773926,0.4114255905151367
1684594521729922600,1.687922607421875,0.023974478244781494,-5.341163158416748,-0.2669544219970703
1684594521746793000,1.70479296875,-0.14847880601882935,-4.344521999359131,-0.024880409240722656
1684594521763670500,1.72167041015625,0.9446778893470764,-3.7399659156799316,0.928565502166748
1684594521780540400,1.73854052734375,2.096942901611328,-3.827152729034424,1.6655311584472656
1684594521797408300,1.755408203125,3.3064937591552734,-4.347461700439453,1.4844269752502441
1684594521814290700,1.772290771484375,2.380296230316162,-4.004305839538574,-0.24597597122192383
1684594521831158000,1.789157958984375,0.6093425750732422,-3.6430678367614746,-1.7601943016052246
1684594521848031000,1.806031005859375,1.0235198736190796,-3.4245376586914062,-2.272327423095703
1684594521864903200,1.822903076171875,2.4371674060821533,-3.294891357421875,-2.057267189025879
1684594521881766000,1.839765869140625,3.58420467376709,-2.6787328720092773,-1.7430667877197266
1684594521898648000,1.85664794921875,2.898519992828369,-1.3445158004760742,-1.21046781539917
1684594521915521800,1.873521728515625,0.9691634178161621,-0.18849468231201172,-2.1691088676452637
1684594521932393500,1.8903935546875,-1.23024582862854,-0.11017513275146484,-3.7021307945251465
1684594521949266400,1.907266357421875,-2.101628065109253,-0.24357891082763672,-5.285243034362793
1684594521966139000,1.924138916015625,-1.6669477224349976,0.11337661743164062,-5.2510833740234375
1684594521983011800,1.94101171875,-2.2861390113830566,0.9483528137207031,-3.7812228202819824
1684594521999883800,1.9578837890625,-1.2713439464569092,1.4931163787841797,-2.2667555809020996
1684594522016746200,1.974746337890625,-1.5071442127227783,2.245215892791748,-0.9450719356536865
1684594522033629400,1.99162939453125,-2.7734923362731934,2.0918288230895996,-1.4550414085388184
1684594522050502400,2.00850244140625,-4.039130687713623,2.0414090156555176,-2.6353378295898438
1684594522067374600,2.02537451171875,-3.714064359664917,2.632526397705078,-3.7771694660186768
1684594522084245000,2.042244873046875,-3.7480878829956055,3.8018221855163574,-3.0137412548065186
1684594522101122300,2.059122314453125,-2.8121585845947266,3.9148740768432617,-1.814599633216858
1684594522117992700,2.07599267578125,-3.4260873794555664,4.235620975494385,-0.5750607252120972
1684594522134851600,2.0928515625,-5.4127397537231445,5.353236675262451,0.5345412492752075
1684594522151740400,2.109740478515625,-6.847694396972656,6.147306442260742,0.163948655128479
1684594522168609800,2.12660986328125,-6.241509437561035,5.199565410614014,0.15828633308410645
1684594522185483300,2.143483154296875,-6.546885013580322,3.4941892623901367,1.0514285564422607
1684594522202355500,2.16035546875,-5.689566612243652,3.539416790008545,0.8815882802009583
1684594522219224600,2.177224609375,-3.0996596813201904,2.9977293014526367,4.613318920135498
1684594522236104200,2.194104248046875,-0.41648274660110474,3.3362646102905273,4.0286030769348145
1684594522252963000,2.210963134765625,-0.15609797835350037,2.250152587890625,2.172430992126465
1684594522269845500,2.227845458984375,1.916118860244751,0.9967966079711914,1.447549819946289
1684594522286708200,2.244708251953125,3.153019428253174,1.0680618286132812,3.6134653091430664
1684594522303591000,2.2615908203125,3.8576483726501465,-0.007172584533691406,4.684083938598633
1684594522320464000,2.2784638671875,2.276123046875,-0.9366998672485352,5.736173152923584
1684594522337335600,2.29533544921875,0.2759495973587036,-2.113919258117676,6.4250383377075195
1684594522354209500,2.31220947265625,-0.007032871246337891,-4.134979248046875,7.535810947418213
1684594522371081200,2.329081298828125,-1.2657347917556763,-3.3459033966064453,6.564343452453613
1684594522387954400,2.345954345703125,0.25400522351264954,-3.9449825286865234,4.936010360717773
1684594522404826600,2.36282666015625,1.1623485088348389,-3.170459747314453,5.206855297088623
1684594522421689000,2.379689208984375,0.7679818868637085,-2.7672805786132812,4.7832112312316895
1684594522438575400,2.396575439453125,0.593704342842102,-2.0407543182373047,4.32929801940918
1684594522455441400,2.41344140625,0.12501633167266846,0.2927579879760742,3.4376354217529297
1684594522472316700,2.430316650390625,-0.1427377462387085,0.7312040328979492,0.8519492149353027
1684594522489190000,2.44718994140625,-0.7548953294754028,1.4828476905822754,2.2937541007995605
1684594522506062300,2.464062255859375,-1.9309014081954956,0.624943733215332,3.4595425128936768
1684594522522935300,2.480935302734375,-0.9665982723236084,-1.4168977737426758,2.4367709159851074
1684594522539807500,2.497807373046875,0.957382082939148,-4.659889221191406,1.9609451293945312
1684594522556680400,2.514680419921875,4.918465614318848,-4.518276214599609,1.4658565521240234
1684594522573552600,2.531552734375,1.616170883178711,-2.8612613677978516,2.2485103607177734
1684594522590425600,2.548425537109375,-8.147175788879395,-3.2869720458984375,0.581838071346283
1684594522607297500,2.565297607421875,-3.03963303565979,-1.382246971130371,-0.6331632137298584
1684594522624171300,2.582171142578125,0.40901732444763184,1.3210229873657227,0.11286461353302002
1684594522641040400,2.599040283203125,0.8097903728485107,3.2587575912475586,2.0243732929229736
1684594522657919000,2.6159189453125,0.7231597900390625,3.2043657302856445,3.360429286956787
1684594522674788000,2.6327880859375,3.2542834281921387,4.858201026916504,1.6544835567474365
1684594522691661000,2.6496611328125,3.882204294204712,6.786286354064941,1.1606380939483643
1684594522708533200,2.666533203125,0.19692468643188477,6.895153045654297,1.772939682006836
1684594522725406500,2.683406494140625,-0.9804143905639648,6.276163578033447,1.928349494934082
1684594522742278700,2.700278564453125,0.49652600288391113,6.144061088562012,1.4931799173355103
1684594522759151900,2.71715185546875,2.679926872253418,5.470706939697266,1.0478367805480957
1684594522776021200,2.734021240234375,2.403204917907715,2.3096413612365723,1.6263341903686523
1684594522792899600,2.750899658203125,2.3454501628875732,-1.4413022994995117,-2.9462642669677734
1684594522809769000,2.76776904296875,5.651352882385254,-10.52379035949707,-4.143139839172363
1684594522826642200,2.78464208984375,8.269264221191406,-20.59621810913086,-1.1552318334579468
1684594522843503900,2.80150390625,9.490741729736328,-18.383838653564453,1.8033770322799683
1684594522860387600,2.8183876953125,5.075824737548828,-7.897425651550293,2.8790645599365234
1684594522877259800,2.835259765625,1.7762079238891602,-2.0592336654663086,4.963964462280273
1684594522894132200,2.85213232421875,-0.24300432205200195,-0.21845054626464844,7.088875770568848
1684594522911003000,2.8690029296875,-4.528369426727295,0.4169778823852539,9.008272171020508
1684594522927878000,2.8858779296875,-6.848480224609375,1.7604589462280273,8.716568946838379
1684594522944749800,2.902749755859375,-5.937746524810791,2.2383408546447754,7.929947376251221
1684594522961605600,2.919605712890625,-2.1630196571350098,0.9476413726806641,7.126675605773926
1684594522978495200,2.9364951171875,0.26277077198028564,-0.2405548095703125,6.250861167907715
1684594522995371800,2.953371826171875,1.8734445571899414,-0.9390640258789062,5.664386749267578
1684594523012237300,2.9702373046875,3.7004687786102295,-1.0688142776489258,4.718960762023926
1684594523029113300,2.98711328125,4.85319709777832,-0.996973991394043,3.8261871337890625
1684594523045975000,3.00397509765625,4.35094690322876,-0.5969944000244141,2.5154905319213867
1684594523062858800,3.020858642578125,3.18022084236145,0.17682361602783203,1.0300493240356445
1684594523079734300,3.037734375,3.1224260330200195,1.2802934646606445,0.1263943910598755
1684594523096604200,3.054604248046875,2.4510505199432373,1.576463222503662,-0.11279416084289551
1684594523113476400,3.071476318359375,1.7437219619750977,1.4610967636108398,-0.35367655754089355
1684594523130349600,3.088349609375,0.7066915035247803,1.8256559371948242,-0.7283549308776855
1684594523147221200,3.10522119140625,-0.16149666905403137,1.2218332290649414,-1.3329792022705078
1684594523164094500,3.122094482421875,-1.0997897386550903,0.4132366180419922,-1.2354047298431396
1684594523180966400,3.13896630859375,-1.0644418001174927,0.004947662353515625,0.4006880521774292
1684594523197838000,3.155838134765625,-0.279852956533432,0.08403682708740234,1.4382954835891724
1684594523214711800,3.1727119140625,0.6561182737350464,-0.15800952911376953,2.5046961307525635
1684594523231585000,3.1895849609375,1.1507432460784912,-0.4470386505126953,3.4384326934814453
1684594523248457200,3.206457275390625,0.9996796250343323,-0.4432220458984375,4.040431976318359
1684594523265326600,3.22332666015625,0.45041579008102417,0.15203094482421875,4.131368160247803
1684594523282202000,3.2402021484375,0.20303696393966675,0.6497745513916016,3.854607105255127
1684594523299075300,3.257075439453125,0.035013020038604736,0.40039825439453125,3.5326051712036133
1684594523315947500,3.273947509765625,-0.5744668245315552,0.12340641021728516,3.1546363830566406
1684594523332818400,3.290818359375,-1.2979035377502441,-0.03619861602783203,2.7123007774353027
1684594523349695500,3.307695556640625,-1.359574794769287,-0.0015468597412109375,2.3325114250183105
1684594523366562000,3.32456201171875,-0.78152996301651,0.1453723907470703,2.051488161087036
1684594523383440400,3.3414404296875,-0.09893476963043213,0.09428882598876953,1.726116418838501
1684594523400310800,3.358310791015625,0.3454791307449341,-0.1145782470703125,1.3521713018417358
1684594523417178600,3.3751787109375,0.4009406566619873,-0.30291271209716797,1.0627696514129639
1684594523434060300,3.392060302734375,-0.1756953001022339,-0.5314550399780273,0.9608848094940186
1684594523450928400,3.408928466796875,-0.5258898735046387,-0.997136116027832,1.4432358741760254
1684594523467801600,3.425801513671875,-0.7165846824645996,-0.9641933441162109,2.2483253479003906
1684594523484671000,3.4426708984375,-0.7692997455596924,-0.5448694229125977,2.979935884475708
1684594523501549300,3.45954931640625,-0.7325539588928223,0.03800201416015625,3.3299174308776855
1684594523518418700,3.476418701171875,-0.6322711706161499,0.7134037017822266,3.289234161376953
1684594523535291600,3.493291748046875,-0.6017805337905884,1.0449295043945312,2.7551753520965576
1684594523552164000,3.5101640625,-0.364176869392395,0.8393306732177734,2.083268880844116
1684594523569037300,3.527037353515625,0.05131268501281738,0.48284435272216797,1.6804970502853394
1684594523585909200,3.5439091796875,0.40041017532348633,0.22667980194091797,1.4100611209869385
1684594523602766600,3.5607666015625,0.7331902980804443,0.02989673614501953,1.2011258602142334
1684594523619650300,3.577650390625,0.9301741123199463,-0.0658578872680664,1.0474250316619873
1684594523636527400,3.59452734375,0.9990439414978027,0.2945699691772461,1.1756049394607544
1684594523653399600,3.611399658203125,1.0520586967468262,0.6721935272216797,1.4882824420928955
1684594523670272800,3.628272705078125,0.9864339828491211,0.5893630981445312,1.7466387748718262
1684594523687142400,3.645142333984375,0.6601400375366211,0.8556594848632812,1.9263275861740112
1684594523704020700,3.662020751953125,0.05753374099731445,1.866884708404541,2.053255319595337
1684594523720887800,3.6788876953125,-0.19279098510742188,2.687875270843506,2.059595823287964
1684594523737766000,3.695765869140625,-0.45367932319641113,3.170748710632324,2.037592649459839
1684594523754635300,3.71263525390625,-0.18815231323242188,3.184978485107422,2.0302436351776123
1684594523771508200,3.72950830078125,0.547027587890625,2.831516742706299,2.036491870880127
1684594523788380700,3.746380615234375,1.3078727722167969,2.1344094276428223,2.006521224975586
1684594523805253600,3.763253662109375,2.0030012130737305,1.0118865966796875,1.8907477855682373
1684594523822126000,3.7801259765625,2.7788424491882324,-0.6307849884033203,1.7187989950180054
1684594523839001300,3.79700146484375,4.319804668426514,-2.6339244842529297,1.580405831336975
1684594523855869000,3.813868896484375,5.06689453125,-4.55394172668457,1.4509568214416504
1684594523872744200,3.830744140625,4.928558349609375,-5.175754070281982,1.6235414743423462
1684594523889616100,3.8476162109375,2.998638153076172,-2.617560863494873,2.370455741882324
1684594523906489600,3.864489501953125,2.0438332557678223,-0.02964639663696289,2.9392600059509277
1684594523923361500,3.881361572265625,1.298966407775879,2.035672664642334,3.258782148361206
1684594523940235000,3.898235107421875,0.3194279670715332,3.186728000640869,3.2568273544311523
1684594523957106700,3.915106689453125,-0.05337238311767578,3.336905002593994,2.984229326248169
1684594523973969400,3.931969482421875,0.6732125282287598,2.712108612060547,2.5823163986206055
1684594523990851800,3.948851806640625,2.3604822158813477,1.7279901504516602,2.1377573013305664
1684594524007725000,3.96572509765625,3.7293286323547363,0.8305878639221191,1.6876814365386963
1684594524024597200,3.98259716796875,3.8815646171569824,-0.009713172912597656,1.1300082206726074
1684594524041481000,3.99948095703125,3.417635917663574,-0.06868791580200195,0.5354585647583008
1684594524058340000,4.016340087890625,1.6031255722045898,0.4629206657409668,0.183305025100708
1684594524075218400,4.033218505859375,0.18304967880249023,0.5418100357055664,0.16406941413879395
1684594524092087600,4.050087646484375,-0.04775381088256836,0.12824010848999023,0.2576110363006592
1684594524108960800,4.066960693359375,0.8313789367675781,-0.37635135650634766,-0.09931468963623047
1684594524125832700,4.083832763671875,2.094268321990967,-0.17934417724609375,-0.46533823013305664
1684594524142706200,4.1007060546875,2.3896737098693848,1.2336735725402832,-0.1569838523864746
1684594524159578400,4.117578369140625,2.185601234436035,2.4471025466918945,0.05199909210205078
1684594524176451600,4.13445166015625,2.1172890663146973,3.141244649887085,-0.06443238258361816
1684594524193323300,4.1513232421875,3.331954002380371,3.0651237964630127,-0.26741838455200195
1684594524210196700,4.16819677734375,4.479419231414795,2.460465431213379,-0.14370203018188477
1684594524227068700,4.185068603515625,4.414326190948486,2.218766689300537,0.44788527488708496
1684594524243942000,4.20194189453125,3.191535472869873,2.1637134552001953,1.1461431980133057
1684594524260811800,4.218811767578125,2.8593568801879883,1.6928672790527344,1.570584774017334
1684594524277689900,4.23568994140625,3.02359676361084,1.0850300788879395,1.807848572731018
1684594524294559200,4.252559326171875,2.872204303741455,0.7451863288879395,1.7953617572784424
1684594524311432200,4.26943212890625,2.409355640411377,1.144096851348877,1.4694479703903198
1684594524328304400,4.286304443359375,1.859004020690918,2.055910587310791,1.1985442638397217
1684594524345177300,4.30317724609375,1.034653663635254,2.490780830383301,1.213632345199585
1684594524362049800,4.3200498046875,0.8915920257568359,1.9783735275268555,1.4628345966339111
1684594524378923000,4.336923095703125,1.761711597442627,0.8052067756652832,1.5632747411727905
1684594524395795000,4.353794921875,2.748267650604248,-0.11044645309448242,1.337827444076538
1684594524412668400,4.37066845703125,3.3772196769714355,-0.7402691841125488,0.9854674339294434
1684594524429540400,4.387540283203125,2.4975008964538574,-1.1995525360107422,0.6114532947540283
1684594524446413300,4.404413330078125,1.8321905136108398,-1.9289088249206543,0.44348716735839844
1684594524463285200,4.42128515625,1.8405179977416992,-3.0364561080932617,0.5669457912445068
1684594524480158500,4.438158447265625,2.3701491355895996,-3.988954544067383,1.0561697483062744
1684594524497031000,4.455031005859375,1.6680293083190918,-3.1973519325256348,1.8966498374938965
1684594524513904000,4.471904052734375,-0.3374466896057129,-1.2974228858947754,2.640414237976074
1684594524530760200,4.48876025390625,-1.5414071083068848,0.3190608024597168,3.145470380783081
1684594524547649000,4.50564892578125,-1.1546587944030762,0.8887286186218262,3.421969413757324
1684594524564521200,4.522521240234375,0.6475391387939453,0.8196597099304199,3.4384803771972656
1684594524581386500,4.539386474609375,2.2302303314208984,0.5936784744262695,3.2296199798583984
1684594524598266400,4.556266357421875,2.9962124824523926,0.5426950454711914,2.792323589324951
1684594524615138800,4.573138916015625,2.9484729766845703,0.15581655502319336,2.216667652130127
1684594524632013800,4.590013916015625,2.101776599884033,-0.7955551147460938,1.5927550792694092
1684594524648884000,4.606884033203125,1.883985996246338,-1.7688426971435547,1.0804868936538696
1684594524665757000,4.6237568359375,1.2271456718444824,-2.032869338989258,0.7870298624038696
1684594524682632700,4.6406328125,-0.00403285026550293,-0.7824306488037109,0.8609734773635864
1684594524699502000,4.657502197265625,-1.3587875366210938,1.2000093460083008,1.3409602642059326
1684594524716375300,4.674375244140625,-2.0958213806152344,2.8213839530944824,1.9109388589859009
1684594524733247500,4.69124755859375,-1.964781403541565,4.077142238616943,2.2430214881896973
1684594524750120700,4.70812060546875,-1.48952317237854,4.818115234375,2.3074259757995605
1684594524766993000,4.724992919921875,-1.2177021503448486,5.192989826202393,2.1535873413085938
1684594524783866000,4.7418662109375,-1.3517212867736816,4.598804950714111,1.668015480041504
1684594524800738000,4.758738037109375,-1.1291866302490234,3.120223045349121,0.8289856910705566
1684594524817608400,4.7756083984375,-0.6392207145690918,1.6467084884643555,-0.14774012565612793
1684594524834485800,4.79248583984375,-0.04922318458557129,0.20201873779296875,-0.894855260848999
1684594524851356400,4.8093564453125,-0.11451601982116699,-0.8541584014892578,-0.8783159255981445
1684594524868228900,4.826228759765625,-1.0277063846588135,-1.1792287826538086,-0.1773231029510498
1684594524885101600,4.8431015625,-2.2300662994384766,-0.9437847137451172,0.4925873279571533
1684594524901963300,4.85996337890625,-2.861147403717041,-0.6963682174682617,1.1647132635116577
1684594524918847000,4.876846923828125,-2.7817816734313965,-0.8085451126098633,1.862198829650879
1684594524935719000,4.893718994140625,-2.1909728050231934,-1.1438274383544922,2.687932252883911
1684594524952592100,4.910592041015625,-0.5717899799346924,-1.4744606018066406,3.3909170627593994
1684594524969451000,4.927450927734375,1.716780662536621,-1.257929801940918,3.913693428039551
1684594524986337300,4.944337158203125,1.7669811248779297,-0.5950841903686523,4.214777946472168
1684594525003212800,4.961212890625,0.4680790901184082,0.6882181167602539,4.143033981323242
1684594525020082700,4.978082763671875,-0.2765359878540039,2.0710325241088867,3.527106285095215
1684594525036955000,4.994954833984375,-0.9824442863464355,3.167593002319336,2.885815382003784
1684594525053827800,5.011827880859375,-1.4018678665161133,3.635185718536377,2.386051893234253
1684594525070700000,5.028699951171875,-1.3994560241699219,3.4443554878234863,2.0783886909484863
1684594525087573500,5.045573486328125,-1.0871820449829102,2.686075210571289,1.812035083770752
1684594525104445700,5.06244580078125,-0.5140171051025391,1.351616382598877,1.4145557880401611
1684594525121318700,5.079318603515625,0.5455536842346191,-0.36276912689208984,0.9608834981918335
1684594525138191000,5.096191162109375,1.8177766799926758,-2.2741127014160156,0.5594315528869629
1684594525155063800,5.113063720703125,1.7001547813415527,-3.121211528778076,0.12270593643188477
1684594525171935700,5.129935791015625,1.070723056793213,-2.487908363342285,-0.009238004684448242
1684594525188809000,5.14680908203125,0.9810600280761719,-1.5522046089172363,0.18633222579956055
1684594525205681400,5.163681396484375,1.2142715454101562,-1.089447021484375,0.5442829132080078
1684594525222554600,5.1805546875,1.7756567001342773,-0.7756843566894531,0.8761959075927734
1684594525239416000,5.197416015625,2.1564393043518066,-0.25847482681274414,1.3673256635665894
1684594525256299500,5.214299560546875,2.181208610534668,0.6848278045654297,1.891917109489441
1684594525273171700,5.231171630859375,1.4911632537841797,1.5431227684020996,2.2011892795562744
1684594525290044700,5.248044677734375,1.0646042823791504,2.0082645416259766,2.223628044128418
1684594525306906400,5.26490625,1.4519248008728027,1.9742794036865234,2.061642646789551
1684594525323790300,5.281790283203125,1.7382774353027344,1.9579434394836426,1.8812105655670166
1684594525340662500,5.29866259765625,1.0761146545410156,2.3030290603637695,1.7493282556533813
1684594525357533000,5.315532958984375,0.9079852104187012,2.5848546028137207,1.4765375852584839
1684594525374410200,5.33241015625,0.48413515090942383,2.2646942138671875,0.9087119102478027
1684594525391279600,5.349279541015625,0.14740467071533203,1.7341361045837402,0.28053879737854004
1684594525408153900,5.36615380859375,-0.6499052047729492,1.2604889869689941,-0.27207446098327637
1684594525425026000,5.383026123046875,-1.0701017379760742,0.875819206237793,-0.7186517715454102
1684594525441898200,5.399898193359375,-0.7704267501831055,0.8464531898498535,-0.7942264080047607
1684594525458771700,5.416771728515625,-0.045877933502197266,1.4000530242919922,-0.5602655410766602
1684594525475633000,5.4336328125,0.04571819305419922,2.070500373840332,-0.2914247512817383
1684594525492516900,5.450516845703125,0.6235513687133789,2.120297431945801,-0.18581652641296387
1684594525509388500,5.467388427734375,1.6527118682861328,1.7456507682800293,-0.23570609092712402
1684594525526261800,5.48426171875,2.124391555786133,1.8458023071289062,-0.1256256103515625
1684594525543134200,5.50113427734375,1.335123062133789,2.4821157455444336,0.2565443515777588
1684594525560005400,5.51800537109375,0.34639549255371094,2.8277220726013184,0.5772905349731445
1684594525576881700,5.534881591796875,-0.14967060089111328,2.600973606109619,0.7820380926132202
1684594525593752300,5.55175244140625,0.015589714050292969,1.6617608070373535,0.9453492164611816
1684594525610612500,5.568612548828125,1.0591926574707031,1.2959189414978027,1.115247130393982
1684594525627497700,5.585497802734375,1.4280462265014648,1.6616706848144531,1.346189260482788
1684594525644369700,5.60236962890625,1.3744850158691406,1.7849068641662598,1.5080692768096924
1684594525661233200,5.619233154296875,1.0333447456359863,1.0862388610839844,1.6054717302322388
1684594525678115300,5.636115234375,1.274862289428711,0.20382452011108398,1.6224002838134766
1684594525694985000,5.65298486328125,1.709864616394043,-0.3434114456176758,1.5451242923736572
1684594525711864000,5.669864013671875,1.6698760986328125,-0.6263389587402344,1.5490882396697998
1684594525728733700,5.686733642578125,1.2672967910766602,-0.8007984161376953,1.760317087173462
1684594525745605600,5.703605712890625,1.0404090881347656,-1.1390018463134766,2.0510568618774414
1684594525762479400,5.720479248046875,0.8842463493347168,-1.5396003723144531,2.2474050521850586
1684594525779348500,5.737348388671875,0.8353085517883301,-1.7439417839050293,2.4202511310577393
1684594525796226800,5.754226806640625,0.7923431396484375,-1.5371646881103516,2.617281913757324
1684594525813096700,5.7710966796875,0.5064773559570312,-1.4277849197387695,2.871553897857666
1684594525829970000,5.787969970703125,0.5834636688232422,-1.4265241622924805,3.071462392807007
1684594525846839300,5.80483935546875,0.9182753562927246,-1.1831750869750977,3.195324659347534
1684594525863717600,5.821717529296875,0.9682989120483398,-0.5649509429931641,3.1551761627197266
1684594525880577000,5.838576904296875,0.1966557502746582,-0.06123781204223633,3.0388972759246826
1684594525897460000,5.8554599609375,0.4526076316833496,-0.11600255966186523,2.9127004146575928
1684594525914333000,5.8723330078125,0.8872385025024414,-0.6731781959533691,2.9038658142089844
1684594525931205600,5.88920556640625,1.1947808265686035,-0.6645102500915527,2.66748046875
1684594525948077800,5.906077880859375,0.8118853569030762,-0.07120990753173828,2.3004024028778076
1684594525964950800,5.92295068359375,0.6313233375549316,0.26404666900634766,1.9477717876434326
1684594525981812200,5.939812255859375,0.9155230522155762,0.17089509963989258,1.6997358798980713
1684594525998696400,5.956696533203125,1.444488525390625,0.002510547637939453,1.5461606979370117
1684594526015568100,5.973568115234375,1.6154422760009766,-0.06876039505004883,1.4350309371948242
1684594526032441600,5.990441650390625,1.4335355758666992,-0.0020613670349121094,1.3340587615966797
1684594526049313300,6.007313232421875,1.2407164573669434,0.35102415084838867,1.3005809783935547
1684594526066186800,6.024186767578125,1.238675594329834,0.3990654945373535,1.3523690700531006
1684594526083059000,6.041058837890625,1.842421054840088,-0.1995534896850586,1.4343795776367188
1684594526099932200,6.05793212890625,1.5351228713989258,-0.637601375579834,1.4066529273986816
1684594526116804000,6.07480419921875,2.474644184112549,-0.7251181602478027,1.2230761051177979
1684594526133677600,6.091677490234375,1.62066650390625,-0.5932607650756836,1.1800607442855835
1684594526150549200,6.10854931640625,1.1496143341064453,-0.021965503692626953,1.210997223854065
1684594526167422700,6.125422607421875,0.9392056465148926,0.015978336334228516,1.3962218761444092
1684594526184294700,6.142294677734375,1.6684799194335938,-0.5584135055541992,1.6403793096542358
1684594526201168000,6.15916796875,2.102884292602539,-0.9920754432678223,1.8062176704406738
1684594526218040000,6.1760400390625,1.7585549354553223,-0.8080959320068359,1.830850601196289
1684594526234913300,6.192913330078125,1.103428840637207,-0.13601112365722656,1.8834900856018066
1684594526251785500,6.209785400390625,0.8326168060302734,0.30977821350097656,2.0688555240631104
1684594526268658700,6.22665869140625,1.269972324371338,0.2311573028564453,2.2370407581329346
1684594526285530600,6.243530517578125,1.9243626594543457,-0.022149085998535156,2.3270256519317627
1684594526302403800,6.26040380859375,1.9291672706604004,-0.029506683349609375,2.2832624912261963
1684594526319276300,6.2772763671875,1.141944408416748,0.21032476425170898,2.168769359588623
1684594526336149200,6.294149169921875,0.6850771903991699,0.1177210807800293,2.0625908374786377
1684594526353021400,6.311021484375,0.7546486854553223,-0.13991022109985352,1.958100438117981
1684594526369894700,6.327894775390625,0.9588432312011719,-0.24429607391357422,1.8051155805587769
1684594526386766800,6.344766845703125,0.7293281555175781,-0.0795736312866211,1.5873205661773682
1684594526403638000,6.361637939453125,0.2447967529296875,0.2203531265258789,1.372302770614624
1684594526420512000,6.378511962890625,-0.15692424774169922,0.4047517776489258,1.1861978769302368
1684594526437387300,6.39538720703125,-0.3857765197753906,0.6281962394714355,1.0335875749588013
1684594526454255000,6.412255126953125,-0.7168440818786621,1.1209802627563477,0.9165186882019043
1684594526471130600,6.429130615234375,-1.1372051239013672,1.9895143508911133,0.8594216704368591
1684594526488002800,6.4460029296875,-1.5916376113891602,2.852198600769043,0.9067851901054382
1684594526504875500,6.46287548828125,-2.1391348838806152,3.5364394187927246,1.0566965341567993
1684594526521737500,6.479737548828125,-2.5319812297821045,4.042900085449219,1.2619297504425049
1684594526538618600,6.49661865234375,-2.687713623046875,4.345043182373047,1.4866063594818115
1684594526555486200,6.513486328125,-2.7753310203552246,4.433008193969727,1.6164926290512085
1684594526572369200,6.530369140625,-2.4999163150787354,4.482530117034912,1.696791410446167
1684594526589238500,6.547238525390625,-2.073967933654785,4.369200229644775,1.748089075088501
1684594526606112000,6.564112060546875,-1.8430023193359375,4.124205589294434,1.7234185934066772
1684594526622984000,6.58098388671875,-1.7086806297302246,3.7242062091827393,1.5500555038452148
1684594526639857200,6.597857177734375,-1.5484795570373535,3.107787609100342,1.2398442029953003
1684594526656729300,6.614729248046875,-1.2783966064453125,2.3060226440429688,0.8721765875816345
1684594526673602600,6.6316025390625,-0.9283289909362793,1.4677762985229492,0.49992045760154724
1684594526690474800,6.648474853515625,-0.5430140495300293,0.7152099609375,0.11961336433887482
1684594526707348000,6.665347900390625,-0.22197246551513672,0.05581474304199219,-0.2789422571659088
1684594526724220000,6.682219970703125,0.06890201568603516,-0.4665837287902832,-0.605248212814331
1684594526741097000,6.699096923828125,0.5769748687744141,-0.7725386619567871,-0.7895468473434448
1684594526757965300,6.71596533203125,0.5815391540527344,-0.7690448760986328,-0.6593989133834839
1684594526774838500,6.732838623046875,0.3975796699523926,-0.6613459587097168,-0.15507769584655762
1684594526791700200,6.7497001953125,0.691138744354248,-0.8813977241516113,0.5057277679443359
1684594526808584000,6.766583984375,1.3864307403564453,-0.8853244781494141,1.1069517135620117
1684594526825455900,6.783455810546875,1.6091933250427246,-0.7568721771240234,1.6306676864624023
1684594526842329000,6.8003291015625,1.8680939674377441,-0.4443526268005371,1.980958342552185
1684594526859201300,6.817201171875,1.7519373893737793,-0.22088193893432617,2.2959933280944824
1684594526876074500,6.834074462890625,1.4721579551696777,-0.10819530487060547,2.3833343982696533
1684594526892946700,6.85094677734375,1.6841583251953125,-0.31805896759033203,2.4283182621002197
1684594526909820000,6.86781982421875,2.0083417892456055,-0.8335413932800293,2.5695996284484863
1684594526926691800,6.88469189453125,2.2064008712768555,-1.294792652130127,2.5626204013824463
1684594526943565000,6.90156494140625,1.8730697631835938,-1.608759880065918,2.3761725425720215
1684594526960437200,6.918437255859375,3.9314775466918945,-2.4151201248168945,2.7368977069854736
1684594526977310500,6.935310546875,-1.3477215766906738,-0.9213099479675293,1.4970377683639526
1684594526994183000,6.952182861328125,1.377519130706787,-1.1356391906738281,1.5151736736297607
1684594527011055900,6.969055908203125,2.122223377227783,-1.5378799438476562,1.821723461151123
1684594527027928000,6.985927978515625,2.1870226860046387,-1.5300631523132324,1.8636029958724976
1684594527044801300,7.00280126953125,2.105372428894043,-1.2814693450927734,1.7273069620132446
1684594527061657900,7.019657958984375,1.6397933959960938,-0.6034302711486816,1.5351108312606812
1684594527078546400,7.03654638671875,1.1846857070922852,0.10339689254760742,1.5238444805145264
1684594527095407900,7.053407958984375,1.1953816413879395,0.34165048599243164,1.8105124235153198
1684594527112291600,7.07029150390625,1.532691478729248,0.17468976974487305,2.1981122493743896
1684594527129164000,7.0871640625,1.867513656616211,-0.05915021896362305,2.4278807640075684
1684594527146026500,7.104026611328125,1.902153491973877,-0.13374614715576172,2.4047746658325195
1684594527162909400,7.120909423828125,1.531637191772461,0.0899057388305664,2.121407985687256
1684594527179783000,7.137782958984375,0.9261221885681152,0.3508028984069824,1.9145643711090088
1684594527196654300,7.154654296875,0.49255895614624023,0.4060020446777344,1.8756781816482544
1684594527213528000,7.171528076171875,0.3435492515563965,0.19941282272338867,1.9681545495986938
1684594527230400300,7.188400146484375,0.4404592514038086,-0.03033924102783203,1.995116949081421
1684594527247273500,7.2052734375,0.4687690734863281,-0.059857845306396484,1.8465737104415894
1684594527264145400,7.2221455078125,0.31548166275024414,0.0804901123046875,1.5539090633392334
1684594527281019000,7.239018798828125,-0.10513734817504883,0.33126163482666016,1.2047488689422607
1684594527297890800,7.255890869140625,-0.6769185066223145,0.6824193000793457,0.8530426025390625
1684594527314764000,7.272763916015625,-1.2598309516906738,1.1069951057434082,0.5780155658721924
1684594527331636500,7.289636474609375,-1.7376585006713867,1.5414495468139648,0.35713255405426025
1684594527348509700,7.306509765625,-2.180971145629883,1.9245896339416504,0.20067338645458221
1684594527365381400,7.32338134765625,-2.560499429702759,2.38828706741333,0.14423690736293793
1684594527382254800,7.3402548828125,-2.819614887237549,2.947202682495117,0.24299152195453644
1684594527399127000,7.357126953125,-2.9423534870147705,3.5683107376098633,0.418972909450531
1684594527416000300,7.374000244140625,-3.004612445831299,4.106888771057129,0.5861388444900513
1684594527432872200,7.3908720703125,-2.863940954208374,4.46986722946167,0.7579984068870544
1684594527449745700,7.40774560546875,-2.5120248794555664,4.531680107116699,0.8881618976593018
1684594527466617900,7.424617919921875,-2.180788993835449,4.28714656829834,0.9438596963882446
1684594527483490800,7.44149072265625,-1.8059687614440918,3.894071102142334,0.9295504093170166
1684594527500363000,7.458363037109375,-1.3727989196777344,3.407238483428955,0.8584119081497192
1684594527517234700,7.475234619140625,-1.0884757041931152,2.8743019104003906,0.6975011825561523
1684594527534109700,7.492109619140625,-0.9013557434082031,2.3413076400756836,0.438246488571167
1684594527550981600,7.508981689453125,-0.8733410835266113,1.7724170684814453,0.10288727283477783
1684594527567853800,7.525853759765625,-0.8429365158081055,1.080021858215332,-0.20261666178703308
1684594527584724200,7.54272412109375,-0.5029401779174805,0.3403782844543457,-0.4863646626472473
1684594527601591000,7.559591064453125,0.09490776062011719,-0.390897274017334,-0.6810551285743713
1684594527618472400,7.576472412109375,0.6800942420959473,-1.003943920135498,-0.7212162017822266
1684594527635344400,7.593344482421875,0.7448029518127441,-1.0228471755981445,-0.5134111642837524
1684594527652217600,7.610217529296875,0.7504639625549316,-0.7221546173095703,-0.001465916633605957
1684594527669090000,7.627090087890625,1.1457610130310059,-0.7986750602722168,0.59006667137146
1684594527685963000,7.643962890625,1.8195934295654297,-0.961738109588623,1.074241042137146
1684594527702835500,7.66083544921875,2.1116371154785156,-0.9053597450256348,1.514813780784607
1684594527719708700,7.677708740234375,2.1642184257507324,-0.4332146644592285,1.6251806020736694
1684594527736580600,7.69458056640625,1.4108939170837402,-0.21750736236572266,1.8210358619689941
1684594527753454000,7.7114541015625,1.5694398880004883,-0.19951248168945312,2.105020523071289
1684594527770326300,7.728326171875,1.617253303527832,-0.5685977935791016,2.4772748947143555
1684594527787196000,7.74519580078125,2.149198532104492,-1.0728402137756348,2.728524684906006
1684594527804071400,7.762071533203125,12.658759117126465,-5.936944961547852,5.6161065101623535
1684594527820944600,7.778944580078125,2.211538791656494,-2.106804847717285,2.840729236602783
1684594527837816800,7.79581689453125,1.8730921745300293,-1.3422412872314453,2.0853092670440674
1684594527854690000,7.81268994140625,1.1890859603881836,-1.3085594177246094,1.5576809644699097
1684594527871562200,7.829562255859375,1.1264266967773438,-1.5049629211425781,1.616498589515686
1684594527888435200,7.846435302734375,2.6187539100646973,-1.8798418045043945,2.131106376647949
1684594527905307400,7.863307373046875,2.3947153091430664,-1.9546799659729004,2.4562535285949707
1684594527922180900,7.880180908203125,1.6585607528686523,-0.8824329376220703,2.2487707138061523
1684594527939053000,7.897052978515625,1.8482837677001953,-0.17862606048583984,2.085395336151123
1684594527955926000,7.913926025390625,2.0265369415283203,0.34229612350463867,2.1200151443481445
1684594527972798500,7.930798583984375,1.7787504196166992,0.5394587516784668,2.2007102966308594
1684594527989671700,7.947671630859375,1.5021567344665527,0.3294811248779297,2.2465827465057373
1684594528006544000,7.9645439453125,1.019540786743164,0.15220260620117188,2.177234172821045
1684594528023416800,7.981416748046875,0.6241440773010254,0.206817626953125,1.999375581741333
1684594528040289300,7.998289306640625,0.46817970275878906,0.3954811096191406,1.77181077003479
1684594528057162500,8.01516259765625,0.5490846633911133,0.4262685775756836,1.5689435005187988
1684594528074034400,8.032034423828126,0.6225662231445312,0.3327751159667969,1.4063401222229004
1684594528090908000,8.048907958984374,0.46132755279541016,0.2723574638366699,1.2326360940933228
1684594528107780000,8.065780029296874,0.07924556732177734,0.36525630950927734,1.0339350700378418
1684594528124653000,8.082653076171875,-0.49315690994262695,0.679530143737793,0.7916520237922668
1684594528141525200,8.099525146484375,-0.9915404319763184,1.1033601760864258,0.5281314849853516
1684594528158398500,8.1163984375,-1.2959208488464355,1.3324685096740723,0.29320991039276123
1684594528175270700,8.133270751953125,-1.5530829429626465,1.4149527549743652,0.04701167345046997
1684594528192144100,8.15014404296875,-1.6685824394226074,1.5185999870300293,-0.1503063291311264
1684594528209016300,8.167016357421875,-1.9086761474609375,1.9311566352844238,-0.30739861726760864
1684594528225889000,8.183888916015626,-2.1661477088928223,2.5832605361938477,-0.3824095129966736
1684594528242761700,8.20076171875,-2.2964353561401367,3.202725410461426,-0.3019070327281952
1684594528259635000,8.217635009765624,-3.079925060272217,3.440751791000366,-0.11715145409107208
1684594528276504300,8.23450439453125,-3.3050239086151123,3.5106165409088135,0.12611140310764313
1684594528293383000,8.2513828125,-2.7051010131835938,3.4694178104400635,0.4705201983451843
1684594528310252500,8.26825244140625,-2.069962978363037,3.4502737522125244,0.7462782263755798
1684594528327125200,8.285125244140625,-1.8572163581848145,3.4483802318573,0.8829759359359741
1684594528343997700,8.301997802734375,-1.702016830444336,3.2132763862609863,0.904988169670105
1684594528360871200,8.31887109375,-1.4300103187561035,2.6514430046081543,0.8653479218482971
1684594528377743000,8.3357431640625,-1.159027099609375,1.8938016891479492,0.7553016543388367
1684594528394616600,8.352616455078126,-0.9616327285766602,1.2161040306091309,0.5039071440696716
1684594528411488800,8.36948876953125,-0.6662716865539551,0.583336353302002,0.17682641744613647
1684594528428362000,8.386362060546874,-0.3382449150085449,0.09322166442871094,-0.19447988271713257
1684594528445234000,8.40323388671875,-0.25264644622802734,-0.13146400451660156,-0.5280661582946777
1684594528462107400,8.420107421875,-0.08466005325317383,-0.10622978210449219,-0.6615102887153625
1684594528478963200,8.436963134765625,-0.08068132400512695,0.22063636779785156,-0.4240785837173462
1684594528495852500,8.4538525390625,0.17182159423828125,0.4406909942626953,-0.003963947296142578
1684594528512725000,8.47072509765625,0.6734476089477539,0.3468170166015625,0.4405256509780884
1684594528529598200,8.48759814453125,1.4127345085144043,0.07846355438232422,0.8719274997711182
1684594528546470400,8.504470458984375,2.163686752319336,-0.1209421157836914,1.1487690210342407
1684594528563343600,8.521343505859376,2.4252939224243164,-0.47391700744628906,1.415205955505371
1684594528580215600,8.538215576171876,2.6067137718200684,-0.8166742324829102,1.6788232326507568
1684594528597089000,8.555089111328124,2.1198596954345703,-0.9976019859313965,1.874690055847168
1684594528613961200,8.571961181640624,1.7013440132141113,-1.1285309791564941,1.9439448118209839
1684594528630834400,8.58883447265625,1.649540901184082,-1.3769536018371582,1.9386550188064575
1684594528647706600,8.60570654296875,-6.676459789276123,-0.20829534530639648,1.0823699235916138
1684594528664579800,8.622579833984375,1.4879217147827148,-1.8407573699951172,2.261568307876587
1684594528681441300,8.639441162109375,0.3992118835449219,-0.7495579719543457,1.682047963142395
1684594528698325200,8.6563251953125,1.4377107620239258,-0.837064266204834,1.8134924173355103
1684594528715195600,8.673195556640625,1.747969627380371,-1.3524045944213867,1.6632273197174072
1684594528732072700,8.69007275390625,1.4168825149536133,-1.5205674171447754,1.505897045135498
1684594528748943000,8.706943115234376,3.3142147064208984,-1.8944573402404785,2.0007996559143066
1684594528765816300,8.72381640625,3.3647279739379883,-2.3029370307922363,2.3976871967315674
1684594528782688300,8.740688232421874,1.6883764266967773,-1.547621250152588,2.018627166748047
1684594528799561700,8.757561767578125,1.159134864807129,-0.5663156509399414,1.596316933631897
1684594528816433700,8.77443359375,1.203669548034668,0.08695507049560547,1.6360141038894653
1684594528833307100,8.79130712890625,1.1307744979858398,0.4940662384033203,1.890512228012085
1684594528850179300,8.808179443359375,1.0469741821289062,0.36670351028442383,2.1339011192321777
1684594528867052500,8.825052490234375,0.8639006614685059,0.11040496826171875,2.1945176124572754
1684594528883924700,8.8419248046875,0.49379396438598633,0.24199342727661133,2.0713350772857666
1684594528900798000,8.8587978515625,0.2010817527770996,0.49250173568725586,1.8922877311706543
1684594528917670000,8.875669921875,0.09770345687866211,0.5720858573913574,1.6714624166488647
1684594528934543400,8.89254345703125,0.19327163696289062,0.4661998748779297,1.462899923324585
1684594528951415600,8.90941552734375,0.21034622192382812,0.49276065826416016,1.2339216470718384
1684594528968288800,8.926288818359374,-0.028866291046142578,0.5934963226318359,0.9995853900909424
1684594528985161000,8.943160888671875,-0.2404789924621582,0.587407112121582,0.7433927059173584
1684594529002034200,8.9600341796875,-0.5025172233581543,0.5571622848510742,0.4806632995605469
1684594529018906400,8.97690625,-0.881281852722168,0.7217330932617188,0.20351958274841309
1684594529035779600,8.993779541015625,-1.2655272483825684,1.0606069564819336,-0.04369986057281494
1684594529052652000,9.010652099609375,-1.7871360778808594,1.5291099548339844,-0.27527564764022827
1684594529069525200,9.027525146484376,-2.2238306999206543,1.964289665222168,-0.45199865102767944
1684594529086397400,9.0443974609375,-2.4053144454956055,2.312112808227539,-0.5729437470436096
1684594529103270700,9.061270751953124,-2.3988101482391357,2.65352725982666,-0.638300359249115
1684594529120142800,9.078142822265624,-2.447362184524536,3.087728977203369,-0.5745251774787903
1684594529137016000,9.09501611328125,-2.644876718521118,3.5169410705566406,-0.3640516996383667
1684594529153888300,9.11188818359375,-2.762343406677246,3.7585361003875732,-0.08073356747627258
1684594529170766300,9.128766357421876,-2.3330020904541016,3.747814178466797,0.1638062596321106
1684594529187634000,9.145634033203125,-2.0145506858825684,3.6312906742095947,0.2866673469543457
1684594529204507000,9.1625068359375,-1.7057499885559082,3.4879491329193115,0.31461358070373535
1684594529221379300,9.17937939453125,-1.4280734062194824,3.333193302154541,0.29542869329452515
1684594529238252500,9.19625244140625,-1.523608684539795,3.0430407524108887,0.20203590393066406
1684594529255124700,9.213124755859376,-1.5931391716003418,2.5096068382263184,0.034881591796875
1684594529271997400,9.22999755859375,-1.3678169250488281,1.7401137351989746,-0.14916086196899414
1684594529288870400,9.246870361328124,-0.8460850715637207,0.9305210113525391,-0.3346582055091858
1684594529305743400,9.263743408203124,-0.4038424491882324,0.30486631393432617,-0.5208315253257751
1684594529322615600,9.280615478515625,-0.0280914306640625,-0.24415874481201172,-0.6426593661308289
1684594529339489000,9.297489013671875,0.5056862831115723,-0.5636487007141113,-0.6031503081321716
1684594529356361000,9.31436083984375,0.41061878204345703,-0.25207090377807617,-0.2910834550857544
1684594529373234000,9.33123388671875,-0.07117223739624023,0.23984050750732422,0.16610825061798096
1684594529390106600,9.348106689453125,0.34647560119628906,0.07299518585205078,0.6191153526306152
1684594529406977300,9.364977294921875,1.2857279777526855,-0.4809079170227051,1.0392500162124634
1684594529423854600,9.3818544921875,1.8583736419677734,-0.7972545623779297,1.3519841432571411
1684594529440725200,9.398725341796874,1.7897229194641113,-0.8913521766662598,1.5531165599822998
1684594529457595000,9.415594970703125,1.948768138885498,-0.8477063179016113,1.7928341627120972
1684594529474473500,9.432473388671875,2.0222625732421875,-0.8893828392028809,1.9884686470031738
1684594529491343000,9.449343017578125,24.2058162689209,-9.612203598022461,7.470331192016602
1684594529508216300,9.46621630859375,-8.474489212036133,1.533480167388916,0.2642098665237427
1684594529525088300,9.483088134765625,-6.673820495605469,0.9277157783508301,0.38342177867889404
1684594529541961700,9.499961669921875,0.7306671142578125,-1.9085664749145508,2.0215566158294678
1684594529558834000,9.516833984375,1.4089007377624512,-0.04706430435180664,1.6361178159713745
1684594529575707100,9.53370703125,2.1837964057922363,0.06768465042114258,1.3392019271850586
1684594529592579300,9.550579345703126,2.6653404235839844,-0.7481155395507812,1.708178162574768
1684594529609450200,9.5674501953125,2.3466644287109375,-0.8024129867553711,1.5057885646820068
1684594529626325000,9.584324951171874,1.3571062088012695,-0.7150211334228516,1.2054213285446167
1684594529643198000,9.601197998046874,0.4688849449157715,-0.9238295555114746,1.1489229202270508
1684594529660070400,9.6180703125,1.6995549201965332,-1.2622909545898438,1.379359483718872
1684594529676943600,9.634943603515625,4.927390098571777,-2.26474666595459,2.248783588409424
1684594529693815800,9.65181591796875,3.398806571960449,-2.239302635192871,2.512132167816162
1684594529710688800,9.668688720703125,1.1528496742248535,-0.37578630447387695,1.7553502321243286
1684594529727561500,9.6855615234375,0.4952826499938965,0.544713020324707,1.5253826379776
1684594529744448300,9.7024482421875,0.9961299896240234,0.8274593353271484,1.7786622047424316
1684594529761306600,9.719306640625,1.5821008682250977,0.7577323913574219,2.03700590133667
1684594529778180000,9.73618017578125,1.4696178436279297,0.5323286056518555,1.9568586349487305
1684594529795052000,9.753052001953124,0.8154082298278809,0.36220502853393555,1.675798773765564
1684594529811925500,9.769925537109375,0.2415027618408203,0.3216519355773926,1.425026774406433
1684594529828798000,9.7867978515625,-0.1746373176574707,0.44658422470092773,1.1582444906234741
1684594529845671200,9.803671142578125,-0.27866458892822266,0.5159635543823242,0.8866492509841919
1684594529862532400,9.820532470703125,-0.05785226821899414,0.41103219985961914,0.6383273601531982
1684594529879416600,9.83741650390625,0.07142972946166992,0.28699350357055664,0.3949991464614868
1684594529896288500,9.85428857421875,-0.28517627716064453,0.3531932830810547,0.1526050567626953
1684594529913162000,9.871161865234376,-0.9040713310241699,0.5916166305541992,-0.06986325979232788
1684594529930034200,9.8880341796875,-1.4652347564697266,0.8218507766723633,-0.24939274787902832
1684594529946907600,9.90490771484375,-1.8889737129211426,0.9229927062988281,-0.3422776758670807
1684594529963779300,9.921779296875,-1.908895492553711,1.0214452743530273,-0.4398455023765564
1684594529980653000,9.938653076171875,-1.808666706085205,1.3856220245361328,-0.4870152473449707
1684594529997522700,9.955522705078126,-1.7689237594604492,2.0768308639526367,-0.43790504336357117
1684594530014401300,9.9724013671875,-2.008577346801758,2.8904075622558594,-0.3169698119163513
1684594530031271000,9.98927099609375,-2.2806944847106934,3.3405966758728027,-0.14369022846221924
1684594530048144100,10.00614404296875,-2.3091511726379395,3.4774367809295654,0.04722893238067627
1684594530065015800,10.023015869140625,-2.1954140663146973,3.4729063510894775,0.2516062259674072
1684594530081889500,10.0398896484375,-2.1572985649108887,3.43001127243042,0.43988049030303955
1684594530098759200,10.05675927734375,-1.9732050895690918,3.286726951599121,0.6029194593429565
1684594530115637500,10.073637451171875,-1.543283462524414,3.00216007232666,0.7213148474693298
1684594530132507100,10.090507080078124,-1.0116872787475586,2.5824737548828125,0.7643566727638245
1684594530149380400,10.10738037109375,-0.5924277305603027,2.148383140563965,0.6593201160430908
1684594530166252800,10.124252685546875,-0.37721729278564453,1.830033302307129,0.4039011001586914
1684594530183126000,10.1411259765625,-0.5062541961669922,1.5774197578430176,0.0907447338104248
1684594530199998500,10.15799853515625,-0.8254585266113281,1.2086882591247559,-0.11727094650268555
1684594530216871700,10.17487158203125,-0.6785426139831543,0.47518491744995117,-0.22617042064666748
1684594530233743600,10.19174365234375,0.09631872177124023,-0.49698877334594727,-0.22053122520446777
1684594530250617000,10.2086171875,0.8024425506591797,-1.3250212669372559,-0.13498497009277344
1684594530267489300,10.2254892578125,0.6151165962219238,-1.3749375343322754,0.028429746627807617
1684594530284362500,10.242362548828124,-0.06290245056152344,-0.7413086891174316,0.3283311128616333
1684594530301234400,10.259234375,0.027181625366210938,-0.5914502143859863,0.6103007793426514
1684594530318108000,10.27610791015625,0.7525038719177246,-0.652519702911377,0.7094471454620361
1684594530334980400,10.29298046875,1.592391014099121,-0.8102388381958008,0.6789822578430176
1684594530351853600,10.309853515625,1.726461410522461,-0.571162223815918,0.47293615341186523
1684594530368725800,10.326725830078125,0.5754513740539551,0.22343921661376953,0.2321789264678955
1684594530385599000,10.343598876953125,-0.3600883483886719,0.8052043914794922,0.2304222583770752
1684594530402471200,10.36047119140625,-0.5389499664306641,0.6954689025878906,0.4588582515716553
1684594530419344600,10.3773447265625,0.2805752754211426,-0.048741817474365234,0.8879752159118652
1684594530436216800,10.394216796875,1.1404333114624023,-0.7293319702148438,1.3062427043914795
1684594530453090000,10.411090087890624,1.4488887786865234,-1.0329151153564453,1.5214636325836182
1684594530469962500,10.42796240234375,1.21058988571167,-1.1285510063171387,1.4773619174957275
1684594530486835700,10.444835693359375,1.1084041595458984,-1.3856711387634277,1.3613431453704834
1684594530503708000,10.4617080078125,1.5141596794128418,-1.6638059616088867,1.3228416442871094
1684594530520581000,10.4785810546875,1.834587574005127,-1.704610824584961,1.30859375
1684594530537449700,10.49544970703125,1.3196191787719727,-1.5487265586853027,1.3051888942718506
1684594530554329000,10.5123291015625,1.0242867469787598,-1.2876601219177246,1.3491013050079346
1684594530571199000,10.529198974609375,1.305647850036621,-0.9264869689941406,1.4881997108459473
1684594530588072200,10.546072265625,1.5597410202026367,-0.6530971527099609,1.6889307498931885
1684594530604944400,10.5629443359375,1.5798606872558594,-0.485471248626709,1.8338394165039062
1684594530621807000,10.57980712890625,1.3550963401794434,-0.49979639053344727,1.898266315460205
1684594530638689800,10.596689697265624,1.1915497779846191,-0.680262565612793,1.892291784286499
1684594530655563000,10.61356298828125,1.3872456550598145,-0.9744033813476562,1.8397293090820312
1684594530672435500,10.630435546875,1.2164692878723145,-1.157423496246338,1.6557340621948242
1684594530689309000,10.647308837890625,0.6678967475891113,-0.8906102180480957,1.2830495834350586
1684594530706181000,10.66418115234375,-0.030123233795166016,-0.4150357246398926,0.985421895980835
1684594530723054000,10.68105419921875,-0.21426105499267578,-0.0014071464538574219,0.8596518039703369
1684594530739926500,10.697926513671876,0.06455183029174805,0.06473255157470703,0.8950172662734985
1684594530756799500,10.714799560546876,0.6283831596374512,0.033358097076416016,0.9552676677703857
1684594530773672200,10.731672119140624,0.7100224494934082,0.21042728424072266,0.89296555519104
1684594530790545400,10.74854541015625,0.41705799102783203,0.32660818099975586,0.6834244728088379
1684594530807417600,10.76541748046875,-0.11778926849365234,0.5489721298217773,0.375896692276001
1684594530824290800,10.782290771484375,-0.5853934288024902,0.7723703384399414,0.07767224311828613
1684594530841163000,10.7991630859375,-0.4842185974121094,0.7565598487854004,-0.14708316326141357
1684594530858036500,10.816036376953125,-0.2813148498535156,0.5648713111877441,-0.2905641794204712
1684594530874908400,10.832908447265625,-0.5710544586181641,0.670964241027832,-0.42212730646133423
1684594530891782000,10.849781982421876,-1.382338047027588,1.2265853881835938,-0.5244792699813843
1684594530908654300,10.866654296875,-2.2182517051696777,1.9191970825195312,-0.48676612973213196
1684594530925527300,10.88352734375,-2.6252543926239014,2.269221305847168,-0.35918566584587097
1684594530942399700,10.900399658203124,-2.3880362510681152,2.378507137298584,-0.12954652309417725
1684594530959273000,10.91727294921875,-1.624619483947754,2.4803566932678223,0.24763941764831543
1684594530976145200,10.934145263671875,-1.582186222076416,2.8761372566223145,0.6594092845916748
1684594530993007900,10.9510078125,-2.1990208625793457,3.356499671936035,0.9253537058830261
1684594531009890800,10.967890869140625,-2.4846229553222656,3.657202959060669,1.0897624492645264
1684594531026764300,10.984764404296875,-2.323281764984131,3.624781370162964,1.2900718450546265
1684594531043636200,11.00163623046875,-1.955146312713623,3.4798672199249268,1.4533511400222778
1684594531060509700,11.018509765625,-1.7181644439697266,3.3435521125793457,1.5400066375732422
1684594531077385000,11.035385009765625,-1.5633959770202637,3.1081931591033936,1.493614673614502
1684594531094251800,11.052251708984375,-1.3035664558410645,2.4576144218444824,1.3065029382705688
1684594531111127600,11.06912744140625,-0.8089194297790527,1.5293188095092773,0.9967031478881836
1684594531128001000,11.0860009765625,-0.3407125473022461,0.763984203338623,0.5791202783584595
1684594531144870100,11.1028701171875,-0.4120626449584961,0.2281184196472168,0.0605015754699707
1684594531161738200,11.11973828125,-0.3988761901855469,-0.40119409561157227,-0.4371323585510254
1684594531178618600,11.13661865234375,0.28513193130493164,-1.3939414024353027,-0.7503343224525452
1684594531195491800,11.153491943359375,0.7418956756591797,-2.0051259994506836,-0.9555969834327698
1684594531212364300,11.1703642578125,0.16521358489990234,-1.5267853736877441,-1.0147500038146973
1684594531229237500,11.187237548828126,-0.4394259452819824,-0.7949161529541016,-0.7549759149551392
1684594531246109700,11.204109619140626,0.4782381057739258,-1.0074234008789062,-0.3844226598739624
1684594531262983000,11.22098291015625,1.695573329925537,-1.1728081703186035,-0.16700398921966553
1684594531279855000,11.237855224609374,2.068239688873291,-0.7787399291992188,-0.13458490371704102
1684594531296728300,11.254728271484375,1.400282382965088,0.04555654525756836,-0.14912128448486328
1684594531313600800,11.271600830078125,0.7869229316711426,0.4094047546386719,0.03615546226501465
1684594531330474000,11.288473876953125,0.9937071800231934,0.10600662231445312,0.4317893981933594
1684594531347355100,11.305355224609375,1.646369457244873,-0.42357587814331055,0.9308385848999023
1684594531364219400,11.322219482421875,1.7862944602966309,-0.8785481452941895,1.433558464050293
1684594531381092000,11.339092041015626,1.513162612915039,-0.7894783020019531,1.7412517070770264
1684594531397965000,11.355965087890626,0.8541345596313477,-0.2399916648864746,1.6073174476623535
1684594531414837200,11.372837158203126,0.20852231979370117,-0.06003093719482422,1.3709969520568848
1684594531431710700,11.389710693359374,0.46006250381469727,-0.34784555435180664,1.3365497589111328
1684594531448582700,11.406582763671874,0.9072670936584473,-0.603360652923584,1.3373081684112549
1684594531465456000,11.4234560546875,1.050410270690918,-0.9939785003662109,1.3385889530181885
1684594531482328600,11.44032861328125,1.122556209564209,-1.5030517578125,1.421931505203247
1684594531499201800,11.457201904296875,1.1868996620178223,-1.8041958808898926,1.5043058395385742
1684594531516074000,11.474073974609375,1.1226825714111328,-1.8588371276855469,1.5027363300323486
1684594531532947200,11.490947265625,1.1263823509216309,-1.6887445449829102,1.4761512279510498
1684594531549820000,11.50781982421875,1.2236571311950684,-1.2442541122436523,1.4008469581604004
1684594531566692900,11.52469287109375,1.2677249908447266,-0.8371434211730957,1.3090927600860596
1684594531583565000,11.54156494140625,1.297750473022461,-0.5552883148193359,1.2275331020355225
1684594531600438500,11.5584384765625,1.3456621170043945,-0.29442596435546875,1.1942250728607178
1684594531617310700,11.575310791015625,1.3299450874328613,-0.20081186294555664,1.1944189071655273
1684594531634184200,11.59218408203125,1.3598146438598633,-0.33899974822998047,1.2123122215270996
1684594531651056400,11.609056396484375,1.4788284301757812,-0.5450730323791504,1.2661831378936768
1684594531667929600,11.6259296875,1.3148984909057617,-0.6226644515991211,1.295222282409668
1684594531684791000,11.642791015625,0.836031436920166,-0.4170384407043457,1.1681544780731201
1684594531701659000,11.659658935546876,0.521054744720459,-0.08012199401855469,0.9049476385116577
1684594531718547500,11.67654736328125,0.3682851791381836,0.24726581573486328,0.675989031791687
1684594531735420700,11.693420654296874,0.21160888671875,0.5176467895507812,0.509769082069397
1684594531752293000,11.710293212890624,0.09334707260131836,0.7048640251159668,0.4096792936325073
1684594531769166300,11.727166259765625,-0.055765628814697266,0.7250699996948242,0.38724303245544434
1684594531786038300,11.744038330078125,-0.1650099754333496,0.6190710067749023,0.39022135734558105
1684594531802912000,11.760912109375,-0.2250041961669922,0.4889240264892578,0.34998130798339844
1684594531819784400,11.777784423828125,-0.3374323844909668,0.40897560119628906,0.24654579162597656
1684594531836653300,11.7946533203125,-0.6744489669799805,0.5360345840454102,0.035469889640808105
1684594531853534000,11.811533935546874,-1.1488618850708008,0.9668364524841309,-0.22489267587661743
1684594531870403000,11.828403076171876,-1.5105462074279785,1.4759950637817383,-0.4645920395851135
1684594531887275300,11.845275146484376,-1.8343453407287598,1.9823427200317383,-0.671162486076355
1684594531904148500,11.8621484375,-2.0432472229003906,2.3287882804870605,-0.7960768938064575
1684594531921020700,11.879020751953124,-2.2236227989196777,2.532318115234375,-0.8749210238456726
1684594531937894100,11.89589404296875,-2.4633355140686035,2.5670204162597656,-0.7950000166893005
1684594531954766300,11.912766357421875,-2.673226833343506,2.5068674087524414,-0.49447131156921387
1684594531971639800,11.929639892578125,-2.700474739074707,2.6412973403930664,-0.10911601781845093
1684594531988512300,11.94651220703125,-2.6707334518432617,3.024970054626465,0.21238797903060913
1684594532005385500,11.963385498046875,-2.502318859100342,3.351823091506958,0.40591251850128174
1684594532022257700,11.980257568359375,-2.124875068664551,3.3746163845062256,0.5535260438919067
1684594532039130600,11.997130615234376,-1.6715788841247559,3.0666189193725586,0.6667976379394531
1684594532056003000,12.014003173828126,-1.1483211517333984,2.470895767211914,0.7383089065551758
1684594532072876500,12.03087646484375,-0.6058487892150879,1.6449809074401855,0.6815147399902344
1684594532089748700,12.047748779296874,-0.29114627838134766,0.9009838104248047,0.45210719108581543
1684594532106622000,12.0646220703125,-0.39816808700561523,0.36597347259521484,0.08142781257629395
1684594532123494400,12.081494384765625,-0.4142589569091797,-0.16449642181396484,-0.2455655336380005
1684594532140367400,12.098367431640625,0.06055259704589844,-0.9235057830810547,-0.41303789615631104
1684594532157237200,12.1152373046875,0.3630533218383789,-1.5200424194335938,-0.4241156578063965
1684594532174115800,12.13211572265625,0.12467718124389648,-1.3811569213867188,-0.21390628814697266
1684594532190985500,12.1489853515625,-0.13004493713378906,-0.8973784446716309,0.14158475399017334
1684594532207858700,12.165858642578126,0.35300683975219727,-0.7404112815856934,0.4290030002593994
1684594532224731100,12.182731201171874,0.9457788467407227,-0.7506494522094727,0.5868222713470459
1684594532241614600,12.199614501953125,1.0350394248962402,-0.4565620422363281,0.5246443748474121
1684594532258476500,12.2164765625,0.6200876235961914,0.12623977661132812,0.3502528667449951
1684594532275350000,12.23335009765625,0.6480221748352051,0.30539941787719727,0.3636486530303955
1684594532292222500,12.250222412109375,1.018846035003662,0.17722702026367188,0.575660228729248
1684594532309095700,12.267095703125,0.979736328125,0.20191431045532227,0.7587738037109375
1684594532325968000,12.2839677734375,0.9706220626831055,0.03809499740600586,0.9179692268371582
1684594532342841000,12.300841064453126,1.3777189254760742,-0.5010085105895996,1.1554172039031982
1684594532359713500,12.317713623046876,1.3392314910888672,-0.5865311622619629,1.290649175643921
1684594532376586800,12.334586669921874,0.3570718765258789,-0.24682092666625977,1.090561866760254
1684594532393459000,12.351458984375,0.44994640350341797,-0.46019411087036133,1.0043251514434814
1684594532410332400,12.36833251953125,1.5272974967956543,-1.1265349388122559,1.1871066093444824
1684594532427204600,12.38520458984375,2.1054906845092773,-1.739532470703125,1.2988450527191162
1684594532444078000,12.402078125,1.951289176940918,-2.1989760398864746,1.1759405136108398
1684594532460950300,12.4189501953125,1.8925261497497559,-2.2616491317749023,1.0664901733398438
1684594532477823200,12.4358232421875,1.6780824661254883,-2.071610450744629,1.1876461505889893
1684594532494696000,12.452696044921876,1.471003532409668,-1.7431902885437012,1.3331916332244873
1684594532511569000,12.46956884765625,1.3974547386169434,-1.3015246391296387,1.4044649600982666
1684594532528438800,12.486438720703125,1.4101676940917969,-0.833794116973877,1.4590332508087158
1684594532545317400,12.5033173828125,1.5506000518798828,-0.5929050445556641,1.5553452968597412
1684594532562187000,12.52018701171875,1.686938762664795,-0.4649648666381836,1.6011886596679688
1684594532579060000,12.53706005859375,1.2700376510620117,-0.2573208808898926,1.4599180221557617
1684594532595932400,12.553932373046875,0.787198543548584,-0.10047674179077148,1.2548291683197021
1684594532612806000,12.570805908203125,0.6679463386535645,-0.1766057014465332,1.1800708770751953
1684594532629678300,12.58767822265625,1.008134365081787,-0.39872312545776367,1.2289044857025146
1684594532646551600,12.604551513671876,0.8585758209228516,-0.3183121681213379,1.1452746391296387
1684594532663423700,12.621423828125,0.34793519973754883,0.04079627990722656,0.8986575603485107
1684594532680297000,12.638296875,0.019347190856933594,0.3505415916442871,0.6772608757019043
1684594532697168600,12.655168701171876,-0.0523834228515625,0.4590644836425781,0.4837381839752197
1684594532714043100,12.672043212890625,0.21521759033203125,0.36118316650390625,0.31721603870391846
1684594532730913000,12.6889130859375,0.413485050201416,0.18357324600219727,0.19092214107513428
1684594532747788300,12.705788330078125,0.015084266662597656,0.2950286865234375,-0.0063849687576293945
1684594532764660500,12.722660400390625,-0.8446197509765625,0.6182093620300293,-0.22560691833496094
1684594532781533700,12.73953369140625,-1.6298508644104004,1.0395264625549316,-0.38231754302978516
1684594532798406100,12.75640625,-2.064056873321533,1.373154640197754,-0.4927535057067871
1684594532815279400,12.773279296875,-1.978952407836914,1.4264659881591797,-0.5946628451347351
1684594532832151300,12.7901513671875,-1.398829460144043,1.3686599731445312,-0.7204920649528503
1684594532849025300,12.807025390625,-1.0337834358215332,1.5415544509887695,-0.8410319089889526
1684594532865897500,12.8238974609375,-1.5586466789245605,2.056365966796875,-0.9388753771781921
1684594532882770700,12.840770751953125,-2.356757164001465,2.6609745025634766,-0.9276143908500671
1684594532899643000,12.857642822265625,-3.004422187805176,2.908474922180176,-0.626325249671936
1684594532916516400,12.874516357421875,-2.9152519702911377,2.638561725616455,-0.17208659648895264
1684594532933399600,12.891399658203126,-2.1457948684692383,2.266695976257324,0.266435444355011
1684594532950259700,12.908259765625,-1.851743221282959,2.317061424255371,0.5365179777145386
1684594532967132000,12.9251318359375,-1.9941840171813965,2.6518149375915527,0.6092385053634644
1684594532984009700,12.942009765625,-2.136716842651367,2.8750057220458984,0.5593113899230957
1684594533000879600,12.958879638671876,-2.0984182357788086,2.760268211364746,0.48664307594299316
1684594533017753000,12.975753173828124,-1.7525920867919922,2.3602519035339355,0.30618786811828613
1684594533034625300,12.992625244140624,-1.0852313041687012,1.7035861015319824,0.02432537078857422
1684594533051498800,13.009498779296875,-0.35604286193847656,0.916046142578125,-0.2358531951904297
1684594533068371000,13.026370849609375,0.03235054016113281,0.3483281135559082,-0.519092321395874
1684594533085244200,13.043244140625,-0.4837207794189453,0.09600448608398438,-0.830237090587616
1684594533102116400,13.060116455078125,-0.9521570205688477,-0.3382411003112793,-1.0171220302581787
1684594533118989800,13.07698974609375,-0.24438858032226562,-1.1871190071105957,-0.886506199836731
1684594533135862000,13.093862060546876,0.607093334197998,-1.56101655960083,-0.5978765487670898
1684594533152735500,13.110735595703124,0.5874123573303223,-0.8491511344909668,-0.3503861427307129
1684594533169607400,13.127607421875,0.7872228622436523,-0.22173500061035156,-0.1157064437866211
1684594533186481200,13.144481201171875,1.1149168014526367,-0.0881342887878418,0.1480417251586914
1684594533203353300,13.161353271484375,1.3089232444763184,-0.07359790802001953,0.41857171058654785
1684594533220226800,13.178226806640625,1.1351428031921387,-0.07928037643432617,0.7006521224975586
1684594533237098800,13.1950986328125,1.0763030052185059,-0.26650524139404297,0.9632866382598877
1684594533253972200,13.21197216796875,1.3486332893371582,-0.5658783912658691,1.1815822124481201
1684594533270844200,13.22884423828125,1.4607996940612793,-0.7060766220092773,1.3097496032714844
1684594533287718000,13.2457177734375,0.9463715553283691,-0.4773135185241699,1.3317382335662842
1684594533304590000,13.262590087890626,0.4445061683654785,-0.24274826049804688,1.3305671215057373
1684594533321452800,13.279452880859376,0.5969061851501465,-0.4508209228515625,1.4443163871765137
1684594533338335700,13.296335693359374,1.2645964622497559,-0.9021611213684082,1.5638837814331055
1684594533355209200,13.313209228515625,1.733015537261963,-1.4134068489074707,1.6783149242401123
1684594533372081700,13.33008154296875,2.006686210632324,-1.8640103340148926,1.6669890880584717
1684594533388955000,13.346954833984375,1.9773240089416504,-2.253166675567627,1.6024062633514404
1684594533405827000,13.3638271484375,1.8790383338928223,-2.3971376419067383,1.5080151557922363
1684594533422696200,13.3806962890625,1.3204002380371094,-2.1613502502441406,1.3932600021362305
1684594533439572700,13.39757275390625,0.8407206535339355,-1.5144586563110352,1.380661964416504
1684594533456445700,13.41444580078125,1.1265254020690918,-0.8975310325622559,1.4384031295776367
1684594533473318400,13.431318359375,1.6379384994506836,-0.5724091529846191,1.4718334674835205
1684594533490191600,13.448191650390624,1.87449312210083,-0.3830251693725586,1.334010362625122
1684594533507063800,13.465063720703125,1.8064274787902832,-0.18791723251342773,1.0615203380584717
1684594533523926500,13.481926513671874,1.4380435943603516,-0.05201435089111328,0.8492825031280518
1684594533540809500,13.4988095703125,1.048771858215332,-0.060660362243652344,0.7529363632202148
1684594533557682700,13.5156826171875,0.8279519081115723,-0.2739591598510742,0.6977882385253906
1684594533574555100,13.53255517578125,0.8107471466064453,-0.5906085968017578,0.6833560466766357
1684594533591428400,13.549428466796876,0.7488389015197754,-0.6191530227661133,0.5895426273345947
1684594533608300800,13.56630078125,0.5184025764465332,-0.2008681297302246,0.3707902431488037
1684594533625173800,13.583173828125,0.33087873458862305,0.27721548080444336,0.14671266078948975
1684594533642046200,13.600046142578124,0.05590534210205078,0.5653672218322754,0.004668474197387695
1684594533658918700,13.616918701171874,-0.25476789474487305,0.6215238571166992,-0.05070650577545166
1684594533675792600,13.633792724609375,-0.40681982040405273,0.42678356170654297,0.037941932678222656
1684594533692665300,13.650665283203125,-0.3542032241821289,0.2123250961303711,0.10016119480133057
1684594533709537500,13.66753759765625,-0.47815656661987305,0.3715801239013672,-0.0017479658126831055
1684594533726411000,13.684410888671875,-0.8583002090454102,0.8352723121643066,-0.19846022129058838
1684594533743283200,13.701283203125,-1.2047686576843262,1.302781581878662,-0.38705092668533325
1684594533760156400,13.718156494140626,-1.611182689666748,1.6622953414916992,-0.510921835899353
1684594533777028600,13.735028564453126,-2.1158876419067383,1.8790998458862305,-0.575802206993103
1684594533793902000,13.751902099609374,-2.563762664794922,2.044861316680908,-0.5983659029006958
1684594533810774500,13.7687744140625,-2.798067569732666,2.24367094039917,-0.5125755071640015
1684594533827647700,13.785647705078125,-2.7621402740478516,2.305283546447754,-0.25731444358825684
1684594533844519700,13.802519775390625,-2.6751437187194824,2.565692901611328,0.027647674083709717
1684594533861386800,13.81938671875,-2.529843330383301,2.924708366394043,0.2799733877182007
1684594533878265300,13.836265380859375,-2.36655855178833,3.243635416030884,0.4935227632522583
1684594533895138800,13.853138916015626,-2.192983627319336,3.3546183109283447,0.6737900972366333
1684594533912011300,13.87001123046875,-1.7673988342285156,3.10250186920166,0.7984892129898071
1684594533928884700,13.886884765625,-1.1386160850524902,2.5131964683532715,0.8624573945999146
1684594533945757000,13.9037568359375,-0.6160955429077148,1.8193230628967285,0.7670626640319824
1684594533962630100,13.920630126953125,-0.5413632392883301,1.2827425003051758,0.4030570983886719
1684594533979502600,13.937502685546875,-0.8076920509338379,0.9032292366027832,-0.07060766220092773
1684594533996375800,13.954375732421875,-1.05324125289917,0.4380054473876953,-0.49344301223754883
1684594534013248300,13.971248291015625,-0.8100013732910156,-0.2502903938293457,-0.8191152811050415
1684594534030121500,13.98812158203125,-0.15404605865478516,-1.1082615852355957,-0.9776287078857422
1684594534047202300,14.005202392578125,0.17851686477661133,-1.486884593963623,-0.9960777759552002
1684594534063867400,14.021867431640626,-0.1810007095336914,-0.7381854057312012,-0.8932541608810425
1684594534080739300,14.0387392578125,-0.003986358642578125,-0.15011310577392578,-0.668437123298645
1684594534097610000,14.05560986328125,0.8893871307373047,-0.3452129364013672,-0.339404821395874
1684594534114487600,14.072487548828125,1.4764728546142578,-0.4502544403076172,-0.0033795833587646484
1684594534131358200,14.089358154296875,1.3295583724975586,-0.23778390884399414,0.21665072441101074
1684594534148230400,14.10623046875,1.0622634887695312,-0.22566556930541992,0.33998847007751465
1684594534165103900,14.123103759765625,1.3702573776245117,-0.8028254508972168,0.5283825397491455
1684594534181976000,14.13997607421875,1.7833986282348633,-1.480309009552002,0.7049350738525391
1684594534198849500,14.156849609375,2.127579689025879,-2.130131244659424,0.8357186317443848
1684594534215721500,14.173721435546875,2.1458263397216797,-2.509249687194824,1.0255422592163086
1684594534232595200,14.19059521484375,2.1758203506469727,-2.713834285736084,1.3054049015045166
1684594534249467400,14.20746728515625,2.3842062950134277,-2.70816707611084,1.608147382736206
1684594534266340900,14.2243408203125,2.59012508392334,-2.6485114097595215,1.7637431621551514
1684594534283213000,14.241213134765625,2.6309499740600586,-2.4056077003479004,1.7084448337554932
1684594534300086300,14.258086181640625,2.294487953186035,-1.815464973449707,1.5709381103515625
1684594534316958500,14.27495849609375,1.511561393737793,-1.078871726989746,1.5388987064361572
1684594534333832200,14.291832275390625,1.2035555839538574,-0.7191267013549805,1.6580846309661865
1684594534350706000,14.308705810546876,1.2656126022338867,-0.5164999961853027,1.8187713623046875
1684594534367576000,14.325576171875,1.2526965141296387,-0.2182755470275879,1.8842353820800781
1684594534384449800,14.34244970703125,0.7246789932250977,-0.026856422424316406,1.9066898822784424
1684594534401323300,14.3593232421875,1.1481075286865234,0.06466054916381836,1.7531037330627441
1684594534418195500,14.376195556640624,1.0468320846557617,0.00937509536743164,1.4566013813018799
1684594534435068700,14.393068603515625,0.8731851577758789,-0.0023632049560546875,1.0921740531921387
1684594534451941000,14.409941162109375,0.42316722869873047,0.0328526496887207,0.6873071193695068
1684594534468814600,14.426814697265625,0.02474212646484375,0.08629989624023438,0.3350958824157715
1684594534485686800,14.443686767578125,-0.1501154899597168,-0.007351875305175781,0.13980722427368164
1684594534502560000,14.46056005859375,-0.16818523406982422,-0.25366878509521484,0.055562615394592285
1684594534519432400,14.477432373046875,-0.14171075820922852,-0.4612765312194824,-0.07358598709106445
1684594534536305700,14.4943056640625,-0.3942108154296875,-0.32357311248779297,-0.3232593536376953
1684594534553171200,14.511171142578124,-1.0178422927856445,0.39844846725463867,-0.6226211190223694
1684594534570051300,14.52805126953125,-1.8322272300720215,1.6073927879333496,-0.850890040397644
1684594534586923800,14.544923828125,-2.5424704551696777,2.7733302116394043,-0.9537022709846497
1684594534603797000,14.561796875,-3.22355318069458,3.5620839595794678,-0.8975411057472229
1684594534620669400,14.57866943359375,-3.6504409313201904,3.853872537612915,-0.7469320893287659
1684594534637539800,14.595539794921875,-3.183809280395508,3.397738456726074,-0.5448824763298035
1684594534654417200,14.612417236328126,-1.8928918838500977,2.570821762084961,-0.2927352786064148
1684594534671288300,14.629288330078126,-1.7119922637939453,2.3565707206726074,-0.1255728006362915
1684594534688160500,14.646160400390626,-2.239086151123047,2.936404228210449,-0.11007583141326904
1684594534705031200,14.66303125,-2.721311569213867,3.2944374084472656,-0.12455761432647705
1684594534721908700,14.67990869140625,-2.5232954025268555,3.084970235824585,-0.02896559238433838
1684594534738779400,14.696779296875,-2.0094923973083496,2.6254849433898926,0.06784462928771973
1684594534755651800,14.71365185546875,-1.5019636154174805,2.224346160888672,0.11421442031860352
1684594534772525000,14.730525146484375,-1.311011791229248,1.8104968070983887,0.09412837028503418
1684594534789397500,14.7473974609375,-1.2175889015197754,1.261795997619629,-0.061063408851623535
1684594534806270700,14.764270751953125,-0.940187931060791,0.5736227035522461,-0.2936512231826782
1684594534823143000,14.781142822265625,-0.26381826400756836,-0.21538114547729492,-0.5217013359069824
1684594534840016400,14.798016357421876,0.6430759429931641,-1.154996395111084,-0.6969356536865234
1684594534856888600,14.814888671875,1.1198668479919434,-1.787553310394287,-0.8200956583023071
1684594534873762000,14.831761962890624,0.3523540496826172,-1.5238652229309082,-0.793087363243103
1684594534890634200,14.84863427734375,-0.4770231246948242,-0.9502243995666504,-0.47801172733306885
1684594534907507200,14.865507080078125,0.1654210090637207,-0.8891201019287109,-0.04283952713012695
1684594534924379600,14.882379638671875,1.1643033027648926,-0.9131331443786621,0.3309197425842285
1684594534941253000,14.899253173828125,1.653059959411621,-0.7574081420898438,0.5939300060272217
1684594534958125600,14.91612548828125,1.430363655090332,-0.43749475479125977,0.6865391731262207
1684594534974998800,14.932998779296875,1.02813720703125,-0.11559629440307617,0.7056798934936523
1684594534991871200,14.949871337890626,0.8550453186035156,-0.024302959442138672,0.7905559539794922
1684594535008744200,14.966744140625,0.9320297241210938,-0.3486776351928711,1.0432324409484863
1684594535025616600,14.98361669921875,1.4069690704345703,-0.8619523048400879,1.1955766677856445
1684594535042490000,15.000489990234374,1.7729206085205078,-1.4794187545776367,1.447936773300171
1684594535059362600,15.017362548828125,1.3559212684631348,-1.7263836860656738,1.3721950054168701
1684594535076235500,15.034235595703125,0.7160577774047852,-1.6588292121887207,1.1760199069976807
1684594535093108200,15.051108154296875,0.9932866096496582,-1.7299752235412598,1.206230640411377
1684594535109981400,15.0679814453125,1.4564218521118164,-1.5344080924987793,1.3397467136383057
1684594535126853600,15.084853515625,1.823760986328125,-1.2524971961975098,1.4370269775390625
1684594535143726800,15.101726806640626,2.358522415161133,-1.404191493988037,1.5642187595367432
1684594535160599300,15.118599365234376,2.426313877105713,-1.4365954399108887,1.4935295581817627
1684594535177470000,15.135469970703125,2.1571602821350098,-1.4635133743286133,1.2836921215057373
1684594535194347300,15.15234716796875,1.5790472030639648,-1.280238151550293,1.0501291751861572
1684594535211218400,15.169218505859375,1.3593602180480957,-1.2324209213256836,0.9681799411773682
1684594535228090400,15.18609033203125,1.3386802673339844,-1.075584888458252,0.9306929111480713
1684594535244974600,15.202974609375,1.073218822479248,-0.7143974304199219,0.8344569206237793
1684594535261825500,15.219825439453125,0.8549494743347168,-0.3329930305480957,0.7390787601470947
1684594535278709500,15.23670947265625,0.9024314880371094,-0.20868253707885742,0.7591562271118164
1684594535295581700,15.253581787109376,1.02793550491333,-0.3007206916809082,0.8258278369903564
1684594535312455200,15.270455078125,0.943540096282959,-0.33581066131591797,0.8483037948608398
1684594535329327400,15.287327392578124,0.5580735206604004,-0.21643495559692383,0.78656005859375
1684594535346200300,15.304200439453124,0.07256126403808594,0.1265106201171875,0.6776931285858154
1684594535363073000,15.321072998046875,-0.28894901275634766,0.43604135513305664,0.6130764484405518
1684594535379946200,15.3379462890625,-0.33455801010131836,0.5115513801574707,0.5596592426300049
1684594535396816100,15.354816162109374,-0.10649919509887695,0.3053770065307617,0.4533296823501587
1684594535413694500,15.371694580078126,-0.024623394012451172,0.009042739868164062,0.2582077980041504
1684594535430564000,15.388564208984375,-0.2892475128173828,-0.05414104461669922,-0.09235453605651855
1684594535447437300,15.405437255859376,-0.8766207695007324,0.29143476486206055,-0.5048484802246094
1684594535464309800,15.422309814453126,-1.6354222297668457,1.0344862937927246,-0.8541327714920044
1684594535481183200,15.439183349609374,-2.484853744506836,1.8822855949401855,-1.082367181777954
1684594535498055400,15.456055419921874,-3.086078643798828,2.4657068252563477,-1.1756534576416016
1684594535514928600,15.4729287109375,-3.3029885292053223,2.667144775390625,-1.1435344219207764
1684594535531801000,15.489801025390625,-3.194477081298828,2.5699639320373535,-1.0019968748092651
1684594535548674600,15.506674560546875,-3.0161497592926025,2.586683750152588,-0.810874342918396
1684594535565546800,15.523546630859375,-2.8293778896331787,2.9820899963378906,-0.6188175082206726
1684594535582420000,15.540419921875,-2.8742780685424805,3.4744834899902344,-0.4462789297103882
1684594535599282000,15.557281982421875,-3.055609941482544,3.7149136066436768,-0.26377004384994507
1684594535616165600,15.57416552734375,-2.8192174434661865,3.7070345878601074,-0.07652604579925537
1684594535633038000,15.5910380859375,-2.24760103225708,3.4724173545837402,0.19696950912475586
1684594535649911600,15.60791162109375,-1.5619239807128906,3.0027501583099365,0.43597352504730225
1684594535666783700,15.62478369140625,-0.9265613555908203,2.502316951751709,0.516735315322876
1684594535683657000,15.641656982421875,-0.6207575798034668,2.017083168029785,0.39595353603363037
1684594535700529000,15.65852880859375,-0.7943577766418457,1.4294795989990234,0.0465390682220459
1684594535717400300,15.675400390625,-0.7119183540344238,0.7076363563537598,-0.32935428619384766
1684594535734277000,15.692277099609376,-0.14966869354248047,-0.27136754989624023,-0.5672316551208496
1684594535751140000,15.70914013671875,0.3244466781616211,-1.1190071105957031,-0.6815953254699707
1684594535768020700,15.726020751953126,0.15248727798461914,-1.3805451393127441,-0.6594588756561279
1684594535784893700,15.742893798828124,0.13966035842895508,-1.1845736503601074,-0.4828261137008667
1684594535801755400,15.75975537109375,0.5629591941833496,-1.2165708541870117,-0.2978858947753906
1684594535818639400,15.776639404296875,1.077916145324707,-1.2602195739746094,-0.25054502487182617
1684594535835511600,15.793511474609375,1.5624408721923828,-1.1857333183288574,-0.20949745178222656
1684594535852385300,15.81038525390625,1.3984041213989258,-0.9373965263366699,-0.017798185348510742
1684594535869257500,15.827257568359375,0.847414493560791,-0.7673754692077637,0.32741427421569824
1684594535886131000,15.844130859375,1.037013053894043,-0.9724020957946777,0.7586181163787842
1684594535903003000,15.8610029296875,1.5542917251586914,-1.328402042388916,1.23130464553833
1684594535919876600,15.877876708984376,1.86124849319458,-1.5021553039550781,1.6067073345184326
1684594535936748500,15.89474853515625,1.6517844200134277,-1.0603413581848145,1.698951244354248
1684594535953622000,15.9116220703125,0.7021870613098145,-0.42339086532592773,1.5577478408813477
1684594535970494500,15.928494384765624,0.33547067642211914,-0.2817206382751465,1.3965015411376953
1684594535987367700,15.94536767578125,0.5569396018981934,-0.4087686538696289,1.3110194206237793
1684594536004240000,15.962239990234375,0.7442440986633301,-0.5384721755981445,1.3038718700408936
1684594536021113300,15.97911328125,0.5688886642456055,-0.4888949394226074,1.200186014175415
1684594536037985300,15.9959853515625,0.2341151237487793,-0.5829672813415527,1.033463478088379
1684594536054858800,16.012858642578124,0.18126392364501953,-0.47550535202026367,0.9219303131103516
1684594536071731000,16.02973095703125,0.02453470230102539,-0.06919384002685547,0.7634947299957275
1684594536088604200,16.046604248046876,-0.11563825607299805,0.4039788246154785,0.5232024192810059
1684594536105477000,16.06347705078125,-0.21115589141845703,0.7242693901062012,0.3117992877960205
1684594536122338300,16.08033837890625,-0.04292583465576172,0.7281293869018555,0.23686814308166504
1684594536139223000,16.09722314453125,0.4869084358215332,0.32172727584838867,0.23407411575317383
1684594536156095700,16.114095703125,1.207916259765625,-0.24042940139770508,0.17141008377075195
1684594536172968200,16.13096826171875,1.7088184356689453,-0.9457979202270508,0.09132909774780273
1684594536189841400,16.14784130859375,1.4900808334350586,-1.457679271697998,-0.15912365913391113
1684594536206713600,16.164713623046875,0.7773590087890625,-1.4792194366455078,-0.4659299850463867
1684594536223587000,16.181587158203126,0.3192000389099121,-1.397843837738037,-0.44767284393310547
1684594536240459300,16.198459228515624,0.6502270698547363,-1.4052619934082031,-0.06327438354492188
1684594536257332500,16.21533251953125,1.3581886291503906,-1.1715145111083984,0.36772823333740234
1684594536274205000,16.232204833984376,1.474886417388916,-0.6181907653808594,0.5675110816955566
1684594536291078000,16.249077880859375,1.0873122215270996,-0.08769845962524414,0.681602954864502
1684594536307950600,16.26595068359375,1.137667179107666,-0.022090435028076172,0.9383478164672852
1684594536324823800,16.28282373046875,1.510948657989502,-0.48725128173828125,1.2680716514587402
1684594536341685200,16.299685302734375,1.5159668922424316,-1.0046887397766113,1.354116678237915
1684594536358569500,16.316569580078124,1.0749764442443848,-1.0206379890441895,1.1664454936981201
1684594536375441700,16.333441650390625,0.40166807174682617,-0.647550106048584,0.8868896961212158
1684594536392315000,16.35031494140625,-0.08545637130737305,-0.2113332748413086,0.6548323631286621
1684594536409187600,16.3671875,0.06331300735473633,-0.09975051879882812,0.6672155857086182
1684594536426060800,16.384060791015624,0.5092978477478027,-0.13968181610107422,0.9002628326416016
1684594536442933000,16.40093310546875,0.5996184349060059,-0.059711456298828125,1.0636069774627686
1684594536459806200,16.41780615234375,0.5421280860900879,0.10665512084960938,1.0032830238342285
1684594536476678700,16.4346787109375,0.46791696548461914,0.2541632652282715,0.7309620380401611
1684594536493551600,16.451551513671873,0.301361083984375,0.3136301040649414,0.4318504333496094
1684594536510424300,16.46842431640625,0.2125849723815918,0.2705254554748535,0.28232312202453613
1684594536527297500,16.485297607421874,0.23585271835327148,0.06845378875732422,0.23202919960021973
1684594536544169700,16.502169677734376,0.07103729248046875,-0.04240989685058594,0.1553947925567627
1684594536561043200,16.519043212890626,-0.24815750122070312,-0.0007109642028808594,0.025650382041931152
1684594536577915400,16.535915283203124,-0.5199947357177734,0.1303849220275879,-0.12601089477539062
1684594536594788900,16.552788818359375,-0.6893162727355957,0.315885066986084,-0.248213529586792
1684594536611661300,16.569661376953125,-0.8459606170654297,0.4483799934387207,-0.33558404445648193
1684594536628534500,16.586534423828127,-0.8619074821472168,0.4643974304199219,-0.3914371728897095
1684594536645406700,16.60340673828125,-0.9205131530761719,0.4767756462097168,-0.429388165473938
1684594536662280000,16.620280029296875,-1.1228623390197754,0.5479540824890137,-0.47727811336517334
1684594536679152400,16.63715234375,-1.2675070762634277,0.5481276512145996,-0.5200510025024414
1684594536696025600,16.654025634765624,-1.3080120086669922,0.5536379814147949,-0.6094369292259216
1684594536712898000,16.67089794921875,-1.6356778144836426,0.9860749244689941,-0.7108787298202515
1684594536729760500,16.687760498046874,-2.2423415184020996,1.8289985656738281,-0.780724287033081
1684594536746643700,16.704643798828126,-2.6479101181030273,2.550478935241699,-0.6854622960090637
1684594536763517000,16.721516845703125,-2.6693949699401855,2.6632184982299805,-0.45403629541397095
1684594536780389400,16.738389404296875,-1.8631858825683594,2.2184653282165527,-0.17291808128356934
1684594536797262800,16.755262939453125,-1.385807991027832,2.119626998901367,-0.0018200874328613281
1684594536814134500,16.772134521484375,-1.7397775650024414,2.5730175971984863,-0.03091716766357422
1684594536831007700,16.7890078125,-2.4254703521728516,2.9608607292175293,-0.16007733345031738
1684594536847880700,16.805880615234376,-2.467989921569824,2.9440131187438965,-0.2651017904281616
1684594536864753700,16.822753662109374,-2.0841922760009766,2.6285061836242676,-0.3159447908401489
1684594536881611500,16.839611572265625,-1.983743667602539,2.334568977355957,-0.3521249294281006
1684594536898502100,16.856502197265623,-1.7808356285095215,1.9058599472045898,-0.42155009508132935
1684594536915371800,16.873371826171876,-1.1895594596862793,1.1883587837219238,-0.5031183958053589
1684594536932245200,16.890245361328127,-0.5981488227844238,0.43812084197998047,-0.574578046798706
1684594536949117400,16.907117431640625,-0.4707217216491699,0.03873443603515625,-0.6330908536911011
1684594536965990700,16.92399072265625,-0.8887515068054199,0.035325050354003906,-0.6621946692466736
1684594536982862800,16.94086279296875,-0.7194900512695312,-0.21979856491088867,-0.5643343925476074
1684594536999736300,16.957736328125,-0.03428936004638672,-0.593346118927002,-0.3460397720336914
1684594537016608500,16.9746083984375,0.25099992752075195,-0.5305209159851074,-0.08053505420684814
1684594537033481700,16.991481689453124,0.3000006675720215,-0.4109616279602051,0.16322267055511475
1684594537050354200,17.008354248046874,0.5881609916687012,-0.5486364364624023,0.4083578586578369
1684594537067227600,17.0252275390625,0.9750690460205078,-0.678715705871582,0.606539249420166
1684594537084099800,17.042099853515627,0.9693126678466797,-0.5879483222961426,0.7458624839782715
1684594537100972000,17.058971923828125,0.7671709060668945,-0.33922576904296875,0.8363680839538574
1684594537117846500,17.075846435546875,0.8447818756103516,-0.3352994918823242,0.9325132369995117
1684594537134718700,17.09271875,1.2337355613708496,-0.5876188278198242,1.0287413597106934
1684594537151590700,17.109590576171875,1.7918391227722168,-1.117894172668457,1.0931544303894043
1684594537168464400,17.12646435546875,1.7038588523864746,-1.3712677955627441,0.9952144622802734
1684594537185336800,17.1433369140625,0.8165140151977539,-0.9850029945373535,0.7703466415405273
1684594537202210000,17.1602099609375,0.2877311706542969,-0.5972161293029785,0.6533410549163818
1684594537219082200,17.177082275390624,0.2676372528076172,-0.36601734161376953,0.6475729942321777
1684594537235955500,17.19395556640625,0.49718427658081055,-0.17006969451904297,0.6581494808197021
1684594537252827600,17.21082763671875,0.7522201538085938,-0.1650981903076172,0.6809580326080322
1684594537269701400,17.227701416015623,0.8056583404541016,-0.38633203506469727,0.7677054405212402
1684594537286573300,17.2445732421875,0.5831198692321777,-0.35257720947265625,0.8138861656188965
1684594537303446800,17.26144677734375,0.3949403762817383,-0.16028594970703125,0.7605502605438232
1684594537320319200,17.2783193359375,0.6408858299255371,-0.11269140243530273,0.6096875667572021
1684594537337194000,17.295194091796876,0.7309446334838867,-0.1439828872680664,0.32689428329467773
1684594537354061000,17.31206103515625,0.5928001403808594,-0.19205570220947266,0.0489954948425293
1684594537370940200,17.328940185546877,0.8220992088317871,-0.47755861282348633,-0.08450841903686523
1684594537387810600,17.345810546875,1.2175002098083496,-0.9502778053283691,-0.041757822036743164
1684594537404683500,17.36268359375,1.4819731712341309,-1.386512279510498,0.04893040657043457
1684594537421554000,17.379553955078126,1.5759186744689941,-1.5591206550598145,0.1307978630065918
1684594537438429400,17.396429443359374,1.4190082550048828,-1.4691500663757324,0.2797071933746338
1684594537455301400,17.41330126953125,1.613548755645752,-1.3391327857971191,0.5614783763885498
1684594537472174800,17.4301748046875,1.902421474456787,-1.1961889266967773,0.8098523616790771
1684594537489047300,17.44704736328125,1.6667470932006836,-0.9546070098876953,0.977020263671875
1684594537505920500,17.46392041015625,1.336054801940918,-0.8386392593383789,1.1201353073120117
1684594537522792700,17.480792724609376,1.2639636993408203,-0.8642234802246094,1.2731244564056396
1684594537539666200,17.497666259765627,1.2717652320861816,-0.812410831451416,1.2748026847839355
1684594537556538400,17.514538330078125,1.0294108390808105,-0.5022282600402832,1.1045701503753662
1684594537573411800,17.531411865234375,0.5725431442260742,-0.14442873001098633,0.8698785305023193
1684594537590284000,17.548283935546873,0.3904886245727539,-0.06719636917114258,0.7885622978210449
1684594537607157500,17.565157470703124,0.31319761276245117,-0.06559276580810547,0.8763084411621094
1684594537624029700,17.58202978515625,0.23132085800170898,-0.033408164978027344,0.9869565963745117
1684594537640903000,17.59890283203125,0.43654632568359375,0.006756305694580078,1.009239673614502
1684594537657775400,17.615775390625,0.6324820518493652,0.11307954788208008,0.8307242393493652
1684594537674648600,17.632648681640624,0.5664792060852051,0.2687244415283203,0.49149322509765625
1684594537691521000,17.64952099609375,0.3949556350708008,0.336367130279541,0.17144083976745605
1684594537708394200,17.666394287109377,0.30658817291259766,0.25629520416259766,-0.03376936912536621
1684594537725266400,17.683266357421875,0.10210990905761719,0.03831624984741211,-0.14166831970214844
1684594537742139600,17.7001396484375,-0.21088123321533203,-0.1446666717529297,-0.22122347354888916
1684594537759012000,17.71701220703125,-0.6659832000732422,-0.1327953338623047,-0.3124591112136841
1684594537775885300,17.73388525390625,-0.8958439826965332,-0.018789291381835938,-0.40809452533721924
1684594537792757800,17.7507578125,-0.7345724105834961,0.08097648620605469,-0.5475386381149292
1684594537809631200,17.76763134765625,-0.5502557754516602,0.25963354110717773,-0.726487398147583
1684594537826497500,17.78449755859375,-0.8239398002624512,0.6717758178710938,-0.914915919303894
1684594537843376600,17.801376708984375,-1.3452072143554688,1.1246495246887207,-1.038980484008789
1684594537860248800,17.818248779296876,-1.867715835571289,1.373427391052246,-0.9613422155380249
1684594537877122300,17.835122314453123,-2.034303665161133,1.2330398559570312,-0.6243242025375366
1684594537893992000,17.851991943359376,-1.8296027183532715,1.0999846458435059,-0.24545228481292725
1684594537910870500,17.86887060546875,-1.5599002838134766,1.2345681190490723,-0.04103684425354004
1684594537927740400,17.885740478515626,-1.3731098175048828,1.4992365837097168,0.0008885860443115234
1684594537944613400,17.90261328125,-1.3823013305664062,1.8820853233337402,-0.08140432834625244
1684594537961483800,17.91948388671875,-1.6716489791870117,2.16123628616333,-0.16144633293151855
1684594537978359000,17.936359130859376,-2.0782341957092285,2.1156177520751953,-0.11506986618041992
1684594537995231200,17.953231201171874,-2.3539772033691406,1.8830242156982422,0.08858907222747803
1684594538012104700,17.970104736328125,-2.3772292137145996,1.8931732177734375,0.25827717781066895
1684594538028977200,17.98697705078125,-2.191662311553955,2.094912052154541,0.29066991806030273
1684594538045850000,18.00385009765625,-2.052372932434082,2.415518283843994,0.1323707103729248
1684594538062722600,18.02072265625,-1.8020567893981934,2.640533447265625,-0.1342313289642334
1684594538079583200,18.037583251953127,-1.4869298934936523,2.5275511741638184,-0.3708745241165161
1684594538096468200,18.05446826171875,-1.181657314300537,2.107325553894043,-0.570745587348938
1684594538113341700,18.071341796875,-0.9995951652526855,1.4240145683288574,-0.706770658493042
1684594538130214000,18.0882138671875,-0.8090457916259766,0.6660647392272949,-0.7849242687225342
1684594538147083300,18.105083251953126,-0.7785043716430664,0.13190269470214844,-0.8618147373199463
1684594538163963100,18.121963134765625,-0.9097113609313965,0.005375385284423828,-0.9813724160194397
1684594538180832800,18.138832763671875,-0.7550888061523438,-0.11321115493774414,-1.0680631399154663
1684594538197702400,18.155702392578124,-0.1354990005493164,-0.5232152938842773,-1.0297898054122925
1684594538214580700,18.172580810546876,0.4581475257873535,-0.9123425483703613,-0.8054043054580688
1684594538231451000,18.189450927734374,0.40832090377807617,-0.776585578918457,-0.41005635261535645
1684594538248324000,18.206323974609376,0.30168581008911133,-0.5241532325744629,0.10599803924560547
1684594538265196300,18.2231962890625,0.5643181800842285,-0.6342835426330566,0.5653290748596191
1684594538282069500,18.240069580078124,1.3199939727783203,-1.05027437210083,1.012122631072998
1684594538298941700,18.256941650390626,2.123079776763916,-1.38193941116333,1.3924601078033447
1684594538315815200,18.273815185546876,2.329428195953369,-1.3575248718261719,1.5330915451049805
1684594538332687400,18.290687255859375,1.202624797821045,-0.7507638931274414,1.2750744819641113
1684594538349560800,18.307560791015625,0.18033409118652344,-0.20540714263916016,0.9663066864013672
1684594538366433300,18.324433349609375,-0.18077659606933594,0.13054752349853516,0.8498730659484863
1684594538383306200,18.34130615234375,-0.0924835205078125,0.2761363983154297,0.8699369430541992
1684594538400176000,18.358176025390627,0.624915599822998,-0.037841796875,1.0496909618377686
1684594538417054700,18.3750546875,1.5980935096740723,-0.6747040748596191,1.2470102310180664
1684594538433924000,18.391924072265624,1.8421578407287598,-1.1360888481140137,1.1805946826934814
1684594538450797600,18.408797607421874,1.0567097663879395,-1.1542606353759766,0.7703135013580322
1684594538467670000,18.425669921875,0.2664809226989746,-0.9702343940734863,0.33800768852233887
1684594538484543200,18.442543212890627,-0.1472926139831543,-0.7619266510009766,0.05910444259643555
1684594538501419500,18.45941943359375,-0.10312223434448242,-0.5853824615478516,-0.04767560958862305
1684594538518289200,18.4762890625,0.22134923934936523,-0.45828866958618164,0.0276339054107666
1684594538535154400,18.493154541015624,1.9306645393371582,-2.206587314605713,0.9601559638977051
1684594538552036600,18.51003662109375,-0.10182332992553711,-0.11849021911621094,0.08168172836303711
1684594538568906800,18.52690673828125,0.9882717132568359,-0.16774892807006836,0.21192288398742676
1684594538585779700,18.54377978515625,1.015108585357666,0.012789249420166016,0.23157358169555664
1684594538602652400,18.56065234375,0.8031482696533203,0.17540311813354492,0.16365337371826172
1684594538619515100,18.57751513671875,1.1489753723144531,-0.23942232131958008,0.14096498489379883
1684594538636397800,18.594397705078126,2.09080171585083,-0.7123141288757324,0.24215126037597656
1684594538653271300,18.611271240234377,2.333573341369629,-1.248857021331787,0.6658596992492676
1684594538670143500,18.6281435546875,1.201904296875,-1.3153266906738281,0.6884951591491699
1684594538687016700,18.6450166015625,1.0848112106323242,-1.2014799118041992,0.7296559810638428
1684594538703889000,18.661888916015624,1.5159950256347656,-1.0502538681030273,0.9024317264556885
1684594538720762600,18.6787626953125,1.7099103927612305,-0.8764181137084961,0.9106276035308838
1684594538737632300,18.69563232421875,1.564424991607666,-0.7636251449584961,0.7435207366943359
1684594540408033800,20.36603369140625,0.9257359504699707,-1.1770896911621094,0.7497172355651855
1684594540424906000,20.382906005859375,1.5139403343200684,-0.8911042213439941,0.9629025459289551
1684594540441769000,20.39976904296875,1.0887365341186523,-0.4706563949584961,0.8881874084472656
1684594540458652000,20.41665185546875,0.5614094734191895,-0.1790485382080078,0.8301677703857422
1684594540475525000,20.433525146484374,0.25144243240356445,-0.05539703369140625,1.0137596130371094
1684594540492397300,20.450397216796876,0.2323751449584961,-0.09942340850830078,1.2930207252502441
1684594540509270800,20.467270751953127,0.388028621673584,-0.25746870040893555,1.4587311744689941
1684594540526143000,20.48414306640625,0.2942795753479004,-0.1724224090576172,1.2817044258117676
1684594540543016400,20.501016357421875,0.21005773544311523,0.11263656616210938,0.8658990859985352
1684594540559888600,20.517888671875,0.2853107452392578,0.31651878356933594,0.43851232528686523
1684594540576761900,20.534761962890624,0.2136373519897461,0.37378358840942383,0.11911654472351074
1684594540593634300,20.55163427734375,0.23120498657226562,0.20562171936035156,-0.0387725830078125
1684594540610507500,20.568507568359376,0.1933126449584961,-0.09022855758666992,-0.1090019941329956
1684594540627379700,20.585379638671874,0.04494905471801758,-0.2988157272338867,-0.2137007713317871
1684594540644253000,20.6022529296875,-0.20557594299316406,-0.3460574150085449,-0.42137908935546875
1684594540661125400,20.61912548828125,-0.5729289054870605,-0.12502717971801758,-0.6894930601119995
1684594540677998300,20.635998291015625,-1.0182547569274902,0.35120201110839844,-0.9489405751228333
1684594540694870800,20.652870849609375,-1.3385815620422363,0.9083924293518066,-1.1481361389160156
1684594540711748000,20.669748046875,-1.7015080451965332,1.343958854675293,-1.2532546520233154
1684594540728616400,20.686616455078124,-2.0264530181884766,1.6151065826416016,-1.2664618492126465
1684594540745490000,20.703489990234374,-2.299990653991699,1.8537616729736328,-1.12234628200531
1684594541116691000,21.07469091796875,1.943037986755371,-1.6150522232055664,-0.014399290084838867
1684594541133563400,21.0915634765625,0.6906723976135254,-0.917017936706543,-0.1388096809387207
1684594541150436600,21.1084365234375,0.8050956726074219,-0.7924976348876953,0.051584720611572266
1684594541167308800,21.125308837890625,1.4168334007263184,-0.9859251976013184,0.5733668804168701
1684594541184182300,21.142182373046875,1.6705374717712402,-1.0470013618469238,1.1122193336486816
1684594541201054500,21.159054443359373,1.7315011024475098,-1.295975685119629,1.7250890731811523
1684594541217927700,21.175927734375,2.6366519927978516,-1.6752829551696777,2.146672010421753
1684594541234799900,21.1927998046875,3.2165913581848145,-2.110154151916504,2.1809098720550537
1684594541251673300,21.20967333984375,2.7175636291503906,-2.3329105377197266,1.8512630462646484
1684594541268545500,21.226545654296874,1.7633533477783203,-2.2482662200927734,1.4285132884979248
1684594541285418800,21.243418701171876,1.4197897911071777,-2.464052200317383,1.2754168510437012
1684594541302291200,21.260291259765626,2.0040555000305176,-2.8905506134033203,1.3217592239379883
1684594541319164400,21.277164306640625,1.9427967071533203,-2.7869505882263184,1.2432899475097656
1684594541336036600,21.29403662109375,1.4667201042175293,-1.7968425750732422,0.9179708957672119
1684594541352910000,21.31091015625,1.2244353294372559,-0.7970008850097656,0.7250556945800781
1684594541369782300,21.3277822265625,1.2552118301391602,-0.35496091842651367,0.8052942752838135
1684594541386655500,21.344655517578126,1.758908748626709,-0.4998340606689453,1.0182874202728271
1684594541403528000,21.36152783203125,1.7555837631225586,-0.6496357917785645,1.0880396366119385
1684594541420401200,21.378401123046874,0.9103975296020508,-0.371614933013916,0.8323841094970703
1684594541437273000,21.395273193359376,0.3571476936340332,0.06991386413574219,0.4739058017730713
1684594541454146600,21.412146484375,0.22993040084838867,0.3257875442504883,0.21615195274353027
1684594541471018800,21.429018798828125,0.39755773544311523,0.20559263229370117,0.11071205139160156
1684594541487892200,21.445892333984375,0.6090097427368164,0.006873607635498047,0.0225677490234375
1684594541504764400,21.462764404296873,0.46857595443725586,0.0485835075378418,-0.07901716232299805
1684594541521642200,21.479642333984376,0.09961128234863281,0.18301916122436523,-0.18587815761566162
1684594541538510000,21.496510009765625,-0.41469812393188477,0.4046001434326172,-0.3375347852706909
1684594541555383300,21.51338330078125,-0.8599209785461426,0.6250834465026855,-0.48052847385406494
1684594541572255500,21.53025537109375,-1.187838077545166,0.8406276702880859,-0.5883651971817017
1684594541589129000,21.54712890625,-1.5233535766601562,1.1155567169189453,-0.6265856027603149
1684594541606001200,21.564001220703126,-2.125253677368164,1.643052101135254,-0.6067507266998291
1684594541622874600,21.58087451171875,-2.7403392791748047,2.3576784133911133,-0.5886663198471069
1684594541639746800,21.597746826171875,-3.312833070755005,3.0748445987701416,-0.5220382213592529
1684594541656619800,21.614619873046873,-3.804656744003296,3.66443133354187,-0.41486644744873047
1684594541673492200,21.6314921875,-3.976839303970337,4.032184600830078,-0.3067835569381714
1684594541690365400,21.648365478515625,-3.736701250076294,4.094853401184082,-0.1488736867904663
1684594541707238000,21.66523779296875,-3.27583384513855,3.8075947761535645,0.010240674018859863
1684594541724110800,21.68211083984375,-2.7339725494384766,3.412606716156006,0.08029890060424805
1684594541740983300,21.6989833984375,-2.280695915222168,3.0390231609344482,0.050562262535095215
1684594541757844200,21.71584423828125,-2.0808262825012207,2.6563825607299805,-0.07514286041259766
1684594541774731500,21.7327314453125,-2.0788707733154297,2.314034938812256,-0.3310583829879761
1684594541791602200,21.749602294921875,-1.8160357475280762,1.866431713104248,-0.5771759748458862
1684594541808474400,21.766474365234377,-1.3126978874206543,1.2894597053527832,-0.7954202890396118
1684594541825345300,21.78334521484375,-0.9034695625305176,0.607109546661377,-1.0069035291671753
1684594541842222600,21.80022265625,-0.3996124267578125,-0.16762161254882812,-1.1438233852386475
1684594541859093500,21.817093505859376,0.28985166549682617,-0.9389100074768066,-1.1973210573196411
1684594541875965700,21.833965576171874,0.899754524230957,-1.63606595993042,-1.1684187650680542
1684594541892839000,21.8508388671875,1.2181754112243652,-2.120164394378662,-1.0810636281967163
1684594541909711000,21.867711181640626,1.055450439453125,-1.8615493774414062,-0.9664808511734009
1684594541926584300,21.884584228515624,0.40035438537597656,-0.9787378311157227,-0.7738242149353027
1684594541943456500,21.90145654296875,0.1526632308959961,-0.5528593063354492,-0.45909905433654785
1684594541960330000,21.918330078125,0.7775630950927734,-0.6653256416320801,-0.032677412033081055
1684594541977199000,21.93519921875,1.4941744804382324,-0.8684344291687012,0.40495967864990234
1684594541994078000,21.952077880859374,2.1320719718933105,-1.1241517066955566,0.8177299499511719
1684594542010947600,21.968947509765623,2.7598414421081543,-1.456714153289795,1.0364458560943604
1684594542027821000,21.985821044921874,3.0373363494873047,-2.0010972023010254,1.2158029079437256
1684594542044693200,22.002693359375,2.736833095550537,-2.4069161415100098,1.3101513385772705
1684594542061571600,22.019571533203123,2.1077823638916016,-2.5971450805664062,1.5535616874694824
1684594542078437600,22.036437744140624,2.0994553565979004,-2.933098793029785,1.9149584770202637
1684594542095313400,22.0533134765625,2.3917465209960938,-3.258759021759033,2.1571075916290283
1684594542112184300,22.070184326171876,2.2496461868286133,-3.076897621154785,2.147961139678955
1684594542129057800,22.087057861328127,1.6363449096679688,-2.2971243858337402,1.981027603149414
1684594542145930000,22.103929931640625,0.9625568389892578,-1.5350327491760254,1.7655043601989746
1684594542162803200,22.12080322265625,0.7917838096618652,-1.0068750381469727,1.5520782470703125
1684594542179675600,22.137675537109374,0.6261048316955566,-0.5564661026000977,1.4089326858520508
1684594542196548600,22.154548583984376,0.6840276718139648,-0.2162795066833496,1.386533260345459
1684594542213421000,22.171421142578126,0.8748688697814941,-0.08548974990844727,1.4047060012817383
1684594542230294000,22.1882939453125,0.4897933006286621,-0.03702545166015625,1.293205976486206
1684594542247166700,22.205166748046874,0.017274856567382812,0.09793233871459961,1.0247492790222168
1684594542264039400,22.222039306640625,0.1966867446899414,0.10320520401000977,0.856635332107544
1684594542280912400,22.238912353515627,0.6152119636535645,-0.025359153747558594,0.7621233463287354
1684594542297785300,22.255785400390625,0.9677071571350098,-0.015946388244628906,0.48464202880859375
1684594542314657500,22.272657470703123,0.8374872207641602,0.19567012786865234,0.0879058837890625
1684594542331531000,22.289531005859374,0.21504449844360352,0.5329442024230957,-0.31439340114593506
1684594542348403200,22.3064033203125,-0.3394322395324707,0.7025570869445801,-0.5771058797836304
1684594542365276700,22.323276611328126,-0.5959057807922363,0.5759029388427734,-0.6742380857467651
1684594542382148600,22.340148681640624,-0.8601622581481934,0.2411785125732422,-0.6661639213562012
1684594542399022000,22.35702197265625,-1.2071332931518555,0.10247278213500977,-0.704766035079956
1684594542415894300,22.373894287109376,-1.619070053100586,0.48981380462646484,-0.8616039156913757
1684594542432767500,22.390767578125,-1.947758674621582,1.3092865943908691,-1.0845096111297607
1684594542449640000,22.407639892578125,-2.2202200889587402,2.152651309967041,-1.262362003326416
1684594542466513200,22.42451318359375,-2.5468239784240723,2.784975528717041,-1.3311729431152344
1684594542483385300,22.44138525390625,-2.94631290435791,3.258713722229004,-1.2622764110565186
1684594542500272400,22.4582724609375,-3.085312843322754,3.3488826751708984,-0.8530150651931763
1684594542517125400,22.47512548828125,-2.953646421432495,3.1181490421295166,-0.3213595151901245
1684594542534004200,22.492004150390624,-2.774209499359131,3.0463528633117676,-0.012041091918945312
1684594542550876400,22.50887646484375,-2.6368322372436523,3.1320133209228516,0.10055804252624512
1684594542567749600,22.52574951171875,-2.3894801139831543,3.1293840408325195,0.14107489585876465
1684594542584622000,22.5426220703125,-2.086026191711426,2.874356269836426,0.15980148315429688
1684594542601495000,22.5594951171875,-1.4611124992370605,2.1814732551574707,0.05103719234466553
1684594542618367500,22.576367431640627,-0.6807765960693359,1.3425936698913574,-0.16829681396484375
1684594542635240700,22.59324072265625,-0.2773747444152832,0.6215367317199707,-0.43534815311431885
1684594542652113200,22.610113037109375,-0.14515399932861328,0.003512859344482422,-0.7506152391433716
1684594542668986000,22.626986083984374,-0.1280512809753418,-0.5755410194396973,-1.0118389129638672
1684594542685858600,22.643858642578124,-0.06127357482910156,-0.9218668937683105,-1.1181981563568115
1684594542702732000,22.66073193359375,-0.04328775405883789,-0.8907999992370605,-0.9010705947875977
1684594542719604000,22.67760400390625,0.5871782302856445,-1.0393362045288086,-0.3825557231903076
1684594542736477200,22.694477294921874,1.477107048034668,-1.2831454277038574,0.11167621612548828
1684594542753349400,22.711349365234376,2.0351572036743164,-1.4438109397888184,0.40108561515808105
1684594542770222600,22.72822265625,1.9064583778381348,-1.302011489868164,0.3534843921661377
1684594542787095000,22.745094970703125,1.1044235229492188,-1.0074691772460938,0.2967956066131592
1684594542803970000,22.761969970703124,0.5328059196472168,-0.7332839965820312,0.41699910163879395
1684594542820840700,22.7788408203125,0.7513337135314941,-0.8739047050476074,0.6684596538543701
1684594542837714000,22.7957138671875,1.1902689933776855,-1.0663609504699707,0.8698875904083252
1684594542854586000,22.812586181640626,1.0499577522277832,-0.8302369117736816,0.9043965339660645
1684594542871459300,22.829459228515624,0.7186112403869629,-0.48519468307495117,0.8329761028289795
1684594542888331500,22.84633154296875,0.7587213516235352,-0.5852222442626953,0.8121860027313232
1684594542905205000,22.863205078125,1.3862180709838867,-1.153829574584961,0.835996150970459
1684594542922077400,22.880077392578126,1.8586921691894531,-1.903256893157959,0.9080698490142822
1684594542938950700,22.89695068359375,2.301602840423584,-2.582467555999756,0.8611085414886475
1684594542955822600,22.913822509765627,2.220388889312744,-2.8007359504699707,0.6761302947998047
1684594542972696000,22.930696044921874,1.7228426933288574,-2.5032472610473633,0.5110037326812744
1684594542989568500,22.947568603515624,1.0734868049621582,-1.9851231575012207,0.5539391040802002
1684594543006441700,22.964441650390626,1.4259400367736816,-1.5736665725708008,0.7723326683044434
1684594543023314000,22.98131396484375,1.6631436347961426,-1.0488076210021973,0.8857064247131348
1684594543040187100,22.998187255859374,1.3902921676635742,-0.3746170997619629,0.8225531578063965
1684594543057059000,23.01505908203125,0.9667391777038574,0.23097896575927734,0.6761589050292969
1684594543073932500,23.0319326171875,0.7536430358886719,0.38019609451293945,0.6442830562591553
1684594543090805000,23.048804931640625,0.9176931381225586,-0.04903888702392578,0.8537116050720215
1684594543107678200,23.06567822265625,0.8398647308349609,-0.5146536827087402,1.1663203239440918
1684594543124551400,23.082551513671874,0.21250438690185547,-0.46395301818847656,1.2537155151367188
1684594543141411800,23.099411865234377,-0.23343133926391602,-0.13663673400878906,1.1297235488891602
1684594543158295800,23.1162958984375,-0.0426173210144043,0.026297569274902344,0.9818174839019775
1684594543175169000,23.1331689453125,0.3940396308898926,0.05089998245239258,0.72654128074646
1684594543192041200,23.150041259765626,0.6332225799560547,-0.00055694580078125,0.35772705078125
1684594543208914700,23.166914794921876,0.4213442802429199,0.06058216094970703,-0.04523038864135742
1684594543225787100,23.183787109375,-0.17781591415405273,0.2931208610534668,-0.4009917974472046
1684594543242660000,23.20066015625,-0.7559823989868164,0.4793701171875,-0.6313900947570801
1684594543259532500,23.217532470703127,-1.0022106170654297,0.4376964569091797,-0.7499902248382568
1684594543276405800,23.23440576171875,-0.9456982612609863,0.31301164627075195,-0.8100860118865967
1684594543293278000,23.25127783203125,-0.9701657295227051,0.3860788345336914,-0.9152215719223022
1684594543310151200,23.268151123046874,-1.385359287261963,0.7013869285583496,-1.0519095659255981
1684594543327023400,23.2850234375,-1.9389877319335938,1.2355098724365234,-1.1982862949371338
1684594543343896800,23.301896728515626,-2.4806461334228516,1.8303170204162598,-1.2691221237182617
