time,seconds_elapsed,z,y,x
1684594520169202700,0.12720263671875,12.011371612548828,1.3232308626174927,-3.9906299114227295
1684594520186076700,0.14407666015625,10.926824569702148,2.659024238586426,-1.5822539329528809
1684594520202955000,0.160955078125,9.694520950317383,1.8957136869430542,-0.8177471160888672
1684594520219825400,0.177825439453125,9.736394882202148,0.9942178130149841,-1.555932879447937
1684594520236697000,0.194697021484375,10.164710998535156,0.20159530639648438,-2.317448616027832
1684594520253569800,0.21156982421875,10.368699073791504,-0.600000262260437,-3.1561331748962402
1684594520270442800,0.22844287109375,9.573084831237793,-0.8009973764419556,-3.903291940689087
1684594520287315700,0.245315673828125,9.321240425109863,-1.1563315391540527,-3.0520453453063965
1684594520304187600,0.262187744140625,7.004390239715576,-0.389431893825531,-2.8079774379730225
1684594520321060600,0.279060546875,4.483551502227783,0.27337998151779175,-2.846860647201538
1684594520337933000,0.29593310546875,10.063015937805176,4.012763500213623,-2.7870402336120605
1684594520354805800,0.3128056640625,14.676377296447754,7.163512706756592,-1.2065808773040771
1684594520371677700,0.329677734375,7.913662910461426,1.179063320159912,-2.379662036895752
1684594520388544300,0.346544189453125,10.292726516723633,-0.8081758618354797,-1.9022940397262573
1684594520405423400,0.36342333984375,8.10269546508789,1.5828521251678467,-1.5750755071640015
1684594520422285600,0.38028564453125,7.978269100189209,2.748156785964966,-1.1431710720062256
1684594520439166000,0.397166015625,9.30867862701416,2.8833513259887695,-1.4727823734283447
1684594520456043800,0.414043701171875,8.217551231384277,0.4815555512905121,-2.8253252506256104
1684594520472913700,0.43091357421875,8.116454124450684,1.7174484729766846,-1.953141450881958
1684594520489786400,0.447786376953125,7.515257835388184,1.770688772201538,-1.5702898502349854
1684594520506656300,0.46465625,9.945169448852539,1.439282774925232,-3.675375461578369
1684594520523534000,0.4815341796875,12.772289276123047,1.846660852432251,-3.9224345684051514
1684594520540404200,0.498404296875,12.88654613494873,2.82951283454895,-1.552343726158142
1684594520557277000,0.51527685546875,8.94137954711914,4.198805332183838,-3.146561861038208
1684594520574149000,0.532149169921875,8.10269546508789,0.7112665176391602,-4.548157691955566
1684594520591021800,0.549021728515625,4.06540584564209,-1.2819547653198242,-3.3852458000183105
1684594520607894500,0.56589453125,0.5335994362831116,-2.1128623485565186,-1.4398809671401978
1684594520624767500,0.582767578125,10.543375015258789,-4.112663745880127,1.7934205532073975
1684594520641630200,0.599630126953125,7.715058326721191,-1.5649060010910034,-2.115255117416382
1684594520658512600,0.6165126953125,1.4195420742034912,-1.26699960231781,-7.7802629470825195
1684594520675387400,0.633387451171875,8.8109712600708,-4.406383037567139,-6.162116527557373
1684594520692257800,0.6502578125,12.572488784790039,-0.646660327911377,-2.5710878372192383
1684594520709129700,0.667129638671875,6.583253383636475,3.387040376663208,-2.325225353240967
1684594520726002400,0.68400244140625,8.809176445007324,1.482353687286377,-2.393420934677124
1684594520742866000,0.700865966796875,8.154739379882812,-0.5413761138916016,-2.8414769172668457
1684594520759748400,0.717748291015625,5.780461311340332,-0.7178468108177185,-3.7567315101623535
1684594520776620300,0.734620361328125,3.314059257507324,-1.6007983684539795,-6.649653911590576
1684594520793490400,0.751490478515625,5.893522262573242,-0.016749758273363113,-8.690134048461914
1684594520810368300,0.7683681640625,4.7096734046936035,2.4502503871917725,-7.357331275939941
1684594520827235800,0.78523583984375,6.965506553649902,1.2765709161758423,-5.438287734985352
1684594520844113200,0.802113037109375,7.685148239135742,0.349352091550827,-6.463612079620361
1684594520860983800,0.81898388671875,8.012965202331543,-0.42831525206565857,-7.445267677307129
1684594520877856300,0.835856201171875,8.187042236328125,-0.9631111025810242,-7.709076404571533
1684594520894729200,0.852729248046875,8.120641708374023,-0.02871387079358101,-6.8033928871154785
1684594520911601200,0.86960107421875,7.525427341461182,0.9284151792526245,-6.606583118438721
1684594520928474000,0.88647412109375,7.603792190551758,0.388235479593277,-6.578467845916748
1684594520945346300,0.90334619140625,8.60459041595459,-0.4504488706588745,-7.019345283508301
1684594520962219300,0.92021923828125,9.137591361999512,-0.3194418251514435,-6.506682872772217
1684594520979091700,0.937091796875,8.598010063171387,-0.1740778535604477,-6.559325218200684
1684594520995971000,0.95397119140625,8.040482521057129,-0.2309073805809021,-6.2297139167785645
1684594521012826400,0.970826416015625,7.766504287719727,0.1663011759519577,-5.98026180267334
1684594521029709600,0.98770947265625,8.384450912475586,-0.37866419553756714,-6.708278179168701
1684594521046582000,1.00458203125,9.232108116149902,0.059820566326379776,-7.156932353973389
1684594521063459800,1.0214599609375,9.08255672454834,0.3026920557022095,-6.788437843322754
1684594521080327200,1.0383271484375,8.884550094604492,-0.1986042857170105,-6.712465763092041
1684594521097200000,1.0552001953125,8.522636413574219,-0.3936193287372589,-6.665207386016846
1684594521114074000,1.07207421875,8.925827026367188,0.25004997849464417,-6.410371780395508
1684594521130943700,1.08894384765625,8.073383331298828,-0.1866401731967926,-6.574280261993408
1684594521147815400,1.1058154296875,6.49770975112915,0.27816563844680786,-6.966702938079834
1684594521164693200,1.122693359375,6.793821811676025,1.2855439186096191,-6.798008918762207
1684594521181553200,1.13955322265625,6.8620171546936035,0.9786644577980042,-6.649653911590576
1684594521198435300,1.156435302734375,7.066005229949951,0.03170489892363548,-6.569494724273682
1684594521215308300,1.173308349609375,7.189833641052246,0.04366901144385338,-5.923432350158691
1684594521232179200,1.19017919921875,7.2711896896362305,0.0771685317158699,-5.990431308746338
1684594521249055000,1.207054931640625,6.7896342277526855,0.08015955984592438,-6.593422889709473
1684594521265926000,1.22392578125,6.412764549255371,0.015553346835076809,-7.11565637588501
1684594521282798600,1.240798583984375,6.416353702545166,0.3798605799674988,-7.507481098175049
1684594521299671300,1.25767138671875,6.449255466461182,0.6011967062950134,-8.000402450561523
1684594521316543200,1.274543212890625,5.999404430389404,0.8171489238739014,-7.852047443389893
1684594521333416400,1.29141650390625,6.379863262176514,-0.004785645287483931,-8.225926399230957
1684594521350288600,1.30828857421875,6.303891181945801,-1.1527422666549683,-8.011768341064453
1684594521367161900,1.325161865234375,4.429712772369385,-2.3922245502471924,-8.861220359802246
1684594521384021200,1.342021240234375,6.818347930908203,-0.9655039310455322,-8.930612564086914
1684594521400906800,1.35890673828125,7.729415416717529,0.05742774158716202,-8.086544036865234
1684594521417776600,1.375776611328125,5.730810165405273,-2.179263114929199,-7.692924976348877
1684594521434654200,1.392654296875,7.023532867431641,-4.387838363647461,-9.106484413146973
1684594521451524600,1.409524658203125,5.958726406097412,-2.9449665546417236,-9.445069313049316
1684594521468394800,1.426394775390625,4.955535888671875,-3.827319860458374,-9.083154678344727
1684594521485272300,1.443272216796875,3.108276605606079,-3.4337005615234375,-9.227322578430176
1684594521502142700,1.460142822265625,1.5278172492980957,-3.0969107151031494,-9.90688419342041
1684594521519014700,1.4770146484375,2.283949136734009,-3.541975736618042,-10.706685066223145
1684594521535887400,1.493887451171875,3.2883365154266357,-4.194019794464111,-11.089536666870117
1684594521552764200,1.51076416015625,3.5359935760498047,-4.1389851570129395,-10.644471168518066
1684594521569633300,1.52763330078125,2.4783661365509033,-4.466203689575195,-10.295717239379883
1684594521586505500,1.54450537109375,1.3824533224105835,-4.66779899597168,-10.469197273254395
1684594521603378200,1.561378173828125,1.1856436729431152,-5.560919761657715,-10.422536849975586
1684594521620251000,1.5782509765625,1.495514154434204,-6.754340171813965,-9.619745254516602
1684594521637123800,1.595123779296875,1.0426725149154663,-6.8512492179870605,-8.619544982910156
1684594521653995300,1.611995361328125,1.1880364418029785,-7.560721397399902,-7.964509963989258
1684594521670857700,1.628857666015625,1.6253247261047363,-8.347960472106934,-7.304689407348633
1684594521687741200,1.6457412109375,2.517249345779419,-9.45045280456543,-7.10010290145874
1684594521704602000,1.66260205078125,2.6261229515075684,-10.351948738098145,-7.981259822845459
1684594521721490000,1.679489990234375,1.0510473251342773,-10.072587013244629,-8.876773834228516
1684594521738356000,1.69635595703125,-0.40677985548973083,-9.350552558898926,-8.919844627380371
1684594521755232500,1.713232421875,-0.2069791555404663,-9.234500885009766,-7.8765740394592285
1684594521772103400,1.730103515625,0.6556333899497986,-9.226723670959473,-6.4354963302612305
1684594521788976000,1.74697607421875,1.252044439315796,-10.434501647949219,-5.852245807647705
1684594521805849000,1.76384912109375,1.4590235948562622,-10.850852012634277,-6.082555294036865
1684594521822722000,1.78072216796875,-1.2113664150238037,-10.948360443115234,-7.481758117675781
1684594521839586800,1.7975869140625,-1.726421594619751,-11.046465873718262,-7.716254711151123
1684594521856467000,1.814467041015625,-1.042074203491211,-11.547163963317871,-7.214360237121582
1684594521873337000,1.831337158203125,0.4504488706588745,-11.439486503601074,-6.457031726837158
1684594521890215000,1.84821484375,0.9373882412910461,-10.521241188049316,-5.221138954162598
1684594521907082200,1.865082275390625,-0.45942193269729614,-9.686145782470703,-4.88554573059082
1684594521923957200,1.881957275390625,-2.297708034515381,-9.119047164916992,-5.618347644805908
1684594521940830200,1.898830322265625,-3.655036687850952,-9.508479118347168,-6.744170665740967
1684594521957703000,1.915702880859375,-3.2141590118408203,-9.943374633789062,-7.385447025299072
1684594521974575900,1.932575927734375,-2.8325037956237793,-8.901300430297852,-6.16391134262085
1684594521991440000,1.94943994140625,-2.1960129737854004,-8.487939834594727,-4.186243057250977
1684594522008320500,1.966320556640625,-1.3022937774658203,-7.796414375305176,-2.6536402702331543
1684594522025193000,1.98319287109375,-2.014756679534912,-7.552944660186768,-1.7395820617675781
1684594522042066200,2.000066162109375,-2.8863422870635986,-7.686344623565674,-2.740380048751831
1684594522058927400,2.01692724609375,-3.1627132892608643,-7.6630144119262695,-4.056432723999023
1684594522075811000,2.03381103515625,-2.6626133918762207,-6.393621921539307,-3.8536407947540283
1684594522092683800,2.050683837890625,-1.973480463027954,-5.91505765914917,-2.9150562286376953
1684594522109556200,2.06755615234375,-1.5637096166610718,-5.8235321044921875,-1.9525432586669922
1684594522126428400,2.084428466796875,-2.5950162410736084,-4.639084815979004,-0.4103690981864929
1684594522143298800,2.101298828125,-4.357928276062012,-3.8392839431762695,-0.5587241053581238
1684594522160172300,2.11817236328125,-5.383851051330566,-3.7872400283813477,-0.9756734371185303
1684594522177051400,2.135051513671875,-4.4955153465271,-5.173282623291016,-0.4265206456184387
1684594522193916400,2.15191650390625,-5.62672233581543,-7.3304123878479,-0.3768695592880249
1684594522210794200,2.168794189453125,-4.18983268737793,-5.446064472198486,1.119242787361145
1684594522227664400,2.185664306640625,-1.2610175609588623,-6.777669906616211,2.3539392948150635
1684594522244537000,2.202537109375,-0.35832518339157104,-6.8823561668396,1.100698471069336
1684594522261419000,2.2194189453125,0.137587308883667,-6.73938512802124,-1.153340458869934
1684594522278282500,2.236282470703125,2.6225335597991943,-8.96650505065918,-0.6089733839035034
1684594522295154700,2.25315478515625,3.157329559326172,-8.102097511291504,0.914058268070221
1684594522312027600,2.270027587890625,3.273381471633911,-9.720243453979492,1.7353945970535278
1684594522328900000,2.286900146484375,0.6197410821914673,-10.530214309692383,2.072782516479492
1684594522345772500,2.3037724609375,-0.18424734473228455,-12.275179862976074,3.0993034839630127
1684594522362645200,2.320645263671875,-0.7256234884262085,-12.78485107421875,3.108276605606079
1684594522379518200,2.337518310546875,-1.1258230209350586,-12.826725959777832,1.2987045049667358
1684594522396390100,2.35439013671875,0.6478567123413086,-12.602398872375488,1.0414760112762451
1684594522413252400,2.37125244140625,0.32123643159866333,-12.026925086975098,0.8171489238739014
1684594522430135800,2.3881357421875,-0.44446679949760437,-11.344970703125,0.41575294733047485
1684594522447008500,2.405008544921875,-0.5282155871391296,-9.561120986938477,0.3122633695602417
1684594522463884000,2.421884033203125,-0.9481559991836548,-8.187641143798828,-1.6965112686157227
1684594522480750000,2.43875,-1.948355793952942,-8.425726890563965,-2.6117658615112305
1684594522497623300,2.455623291015625,-2.9006991386413574,-7.9621171951293945,0.32721850275993347
1684594522514491000,2.472490966796875,-2.943770170211792,-9.020342826843262,-0.7028916478157043
1684594522531371300,2.489371337890625,-2.6697919368743896,-13.03071403503418,0.656829833984375
1684594522548241400,2.506241455078125,1.0462616682052612,-14.171492576599121,-0.6975077986717224
1684594522565119200,2.523119140625,1.3310075998306274,-12.78485107421875,0.649053156375885
1684594522581989400,2.5399892578125,-6.348756790161133,-11.665608406066895,0.41216370463371277
1684594522598860800,2.55686083984375,-8.563314437866211,-12.400803565979004,-0.8823533654212952
1684594522615735300,2.5737353515625,-3.759124279022217,-9.068199157714844,-1.4117653369903564
1684594522632606700,2.590606689453125,-2.8007988929748535,-6.744170665740967,0.5108676552772522
1684594522649479700,2.607479736328125,-1.85383939743042,-6.4217376708984375,2.2582263946533203
1684594522666352000,2.62435205078125,-1.3369896411895752,-5.595615863800049,1.8335003852844238
1684594522683224800,2.641224853515625,1.3824533224105835,-3.33858585357666,0.07657032459974289
1684594522700097300,2.65809716796875,-0.243469700217247,-2.345564365386963,0.8183453679084778
1684594522716977000,2.674976806640625,-3.279961585998535,-2.953341245651245,1.1132607460021973
1684594522733831700,2.691831787109375,-2.4574289321899414,-3.3858439922332764,1.036690354347229
1684594522750715400,2.70871533203125,-0.2763710021972656,-3.6340994834899902,0.02751746028661728
1684594522767587800,2.725587890625,1.9334007501602173,-5.071587562561035,0.4911268353462219
1684594522784460800,2.742460693359375,1.0091729164123535,-9.907482147216797,-0.7501499056816101
1684594522801333000,2.7593330078125,3.8464624881744385,-15.008979797363281,-5.459224700927734
1684594522818203000,2.776202880859375,7.295716285705566,-26.681169509887695,-4.346562385559082
1684594522835080700,2.793080810546875,10.563714027404785,-30.55215835571289,-1.3627125024795532
1684594522851951000,2.809951171875,9.386445045471191,-22.988445281982422,1.2490534782409668
1684594522868823000,2.826822998046875,3.5682966709136963,-14.057832717895508,2.2570300102233887
1684594522885696300,2.8436962890625,2.6362924575805664,-10.341180801391602,4.06540584564209
1684594522902569000,2.86056884765625,-0.7268198728561401,-9.34157943725586,6.1465630531311035
1684594522919441700,2.877441650390625,-4.356133460998535,-8.338388442993164,6.9068827629089355
1684594522936313600,2.894313720703125,-5.4526448249816895,-7.3675007820129395,6.227919101715088
1684594522953186300,2.911186279296875,-2.602792739868164,-7.867002487182617,5.683551788330078
1684594522970059300,2.928059326171875,0.6664010882377625,-9.32423210144043,4.95074987411499
1684594522986931700,2.944931640625,2.3395824432373047,-10.216754913330078,4.357329845428467
1684594523003795700,2.961795654296875,3.8596229553222656,-10.793424606323242,3.6634113788604736
1684594523020680000,2.978679931640625,5.433502197265625,-10.685748100280762,2.6638097763061523
1684594523037547000,2.995547119140625,5.7619171142578125,-10.506285667419434,1.4105689525604248
1684594523054424800,3.0124248046875,4.5391845703125,-9.886545181274414,-0.13998012244701385
1684594523071284000,3.029283935546875,3.896711587905884,-9.001200675964355,-1.6325032711029053
1684594523088162600,3.04616259765625,3.620938777923584,-8.085946083068848,-2.029113531112671
1684594523105040400,3.063040283203125,2.748156785964966,-8.087740898132324,-2.283350944519043
1684594523121913000,3.0799130859375,1.8753747940063477,-8.059624671936035,-2.796013355255127
1684594523138785300,3.096785400390625,0.5593222975730896,-8.082955360412598,-3.3278181552886963
1684594523155655200,3.1136552734375,-0.1256231814622879,-8.619544982910156,-3.683152198791504
1684594523172536000,3.1305361328125,-0.7082754969596863,-9.562317848205566,-2.602792739868164
1684594523189400300,3.147400390625,-0.2799602448940277,-9.495318412780762,-1.333998680114746
1684594523206275300,3.164275390625,0.7836494445800781,-9.56351375579834,-0.30927231907844543
1684594523223148000,3.18114794921875,1.5906288623809814,-9.870393753051758,0.7244270443916321
1684594523240021200,3.198021240234375,1.8394824266433716,-10.045069694519043,1.4949159622192383
1684594523256894000,3.21489404296875,1.4799607992172241,-9.734002113342285,1.825723648071289
1684594523273766000,3.231765869140625,1.1335997581481934,-9.020342826843262,1.716252088546753
1684594523290638600,3.248638671875,1.052243709564209,-8.94257640838623,1.3621143102645874
1684594523307511300,3.26551123046875,0.7627122402191162,-9.275776863098145,1.074377417564392
1684594523324384500,3.282384521484375,0.053240302950143814,-9.482755661010742,0.6861419081687927
1684594523341256700,3.299256591796875,-0.34217363595962524,-9.595218658447266,0.3074777126312256
1684594523358116600,3.31611669921875,0.09631111472845078,-9.462417602539062,0.0687936544418335
1684594523374994700,3.33299462890625,0.8685946464538574,-9.378069877624512,-0.18484555184841156
1684594523391874800,3.349874755859375,1.5708880424499512,-9.527621269226074,-0.5288137793540955
1684594523408746800,3.366746826171875,1.9148563146591187,-9.704689979553223,-0.8500502705574036
1684594523425619500,3.383619384765625,1.8251254558563232,-9.904491424560547,-1.079761266708374
1684594523442485200,3.4004853515625,1.277767300605774,-10.218548774719238,-0.9032905697822571
1684594523459365400,3.417365478515625,1.2550355195999146,-10.535597801208496,-0.20458634197711945
1684594523476237300,3.4342373046875,1.1820544004440308,-10.183853149414062,0.5850451588630676
1684594523493110300,3.4511103515625,1.2699905633926392,-9.674181938171387,1.1312068700790405
1684594523509983000,3.46798291015625,1.4482558965682983,-8.986844062805176,1.256830096244812
1684594523526852900,3.484852783203125,1.5846468210220337,-8.398807525634766,0.9655039310455322
1684594523543730200,3.501730224609375,1.789831280708313,-8.344968795776367,0.2907279431819916
1684594523560600300,3.518600341796875,2.3156540393829346,-8.632107734680176,-0.22133609652519226
1684594523577470200,3.53547021484375,2.813361167907715,-8.928817749023438,-0.5276173949241638
1684594523594349000,3.55234912109375,3.352942705154419,-9.111868858337402,-0.7429714202880859
1684594523611218400,3.569218505859375,3.8111681938171387,-9.217751502990723,-0.9343972206115723
1684594523628091100,3.586091064453125,4.11625337600708,-9.046664237976074,-0.9529415965080261
1684594523644963600,3.602963623046875,4.4189453125,-8.48435115814209,-0.6795616149902344
1684594523661825800,3.61982568359375,4.532604217529297,-8.318049430847168,-0.3678964674472809
1684594523678709000,3.636708984375,4.508676052093506,-8.323433876037598,-0.1621137410402298
1684594523695581400,3.65358154296875,4.033102512359619,-7.548159122467041,-0.003589233849197626
1684594523712454000,3.670453857421875,3.82373046875,-6.500700950622559,0.01196411345154047
1684594523729316400,3.68731640625,3.6634113788604736,-5.744568824768066,-0.054436713457107544
1684594523746199300,3.70419921875,3.786043643951416,-5.400600910186768,-0.1495514214038849
1684594523763071700,3.72107177734375,4.511068820953369,-5.469394207000732,-0.259621262550354
1684594523779938600,3.7379384765625,5.486144065856934,-5.86421012878418,-0.4223332107067108
1684594523796806700,3.754806640625,6.300302028656006,-6.62632417678833,-0.6765705943107605
1684594523813689600,3.771689697265625,7.130611419677734,-7.851449489593506,-0.9984052777290344
1684594523830562600,3.7885625,8.50708293914795,-9.619147300720215,-1.2628121376037598
1684594523847435300,3.805435302734375,9.736394882202148,-11.634501457214355,-1.5182459354400635
1684594523864308000,3.822307861328125,10.224531173706055,-13.064811706542969,-1.6295121908187866
1684594523881180000,3.839179931640625,9.012566566467285,-11.92463207244873,-1.2029916048049927
1684594523898052900,3.856052978515625,7.492526054382324,-8.97667407989502,-0.6352944374084473
1684594523914925300,3.87292529296875,6.881757736206055,-6.537789821624756,-0.3122633695602417
1684594523931798300,3.88979833984375,6.105885028839111,-4.771886348724365,-0.23389841616153717
1684594523948670700,3.906670654296875,5.44008207321167,-3.9661035537719727,-0.4582255482673645
1684594523965543400,3.92354345703125,5.7792649269104,-4.1144585609436035,-0.8602197170257568
1684594523982405400,3.9404052734375,7.304090976715088,-4.854438781738281,-1.272383451461792
1684594523999288800,3.957288818359375,8.963513374328613,-5.828916072845459,-1.731805443763733
1684594524016163300,3.974163330078125,9.524630546569824,-6.541378974914551,-2.2301106452941895
1684594524033034000,3.991033935546875,9.470193862915039,-7.079763889312744,-2.848057270050049
1684594524049906700,4.00790673828125,8.388039588928223,-7.226922512054443,-3.6580276489257812
1684594524066779600,4.024779541015625,6.095715522766113,-6.516254425048828,-3.916452407836914
1684594524083651600,4.041651611328125,5.233103275299072,-6.710072994232178,-3.8356947898864746
1684594524100524300,4.058524169921875,5.61236572265625,-7.322635650634766,-3.9224345684051514
1684594524117386000,4.075385986328125,6.887740135192871,-7.6600236892700195,-4.377070903778076
1684594524134269400,4.09226953125,7.675576686859131,-6.725626468658447,-4.347160339355469
1684594524151131400,4.10913134765625,7.76470947265625,-5.307280540466309,-3.996013879776001
1684594524168014800,4.126014892578125,7.493722438812256,-4.259822368621826,-3.937389612197876
1684594524184887600,4.142887451171875,8.221738815307617,-3.912863254547119,-4.070789337158203
1684594524201750000,4.15975,9.725627899169922,-4.242474555969238,-4.0558342933654785
1684594524218632200,4.176632080078125,10.495518684387207,-4.767699241638184,-3.524627685546875
1684594524235505200,4.193505126953125,9.670592308044434,-4.810171604156494,-2.706880569458008
1684594524252377900,4.2103779296875,8.865407943725586,-5.096114158630371,-2.0135602951049805
1684594524269250800,4.227250732421875,8.667402267456055,-5.7756757736206055,-1.607378602027893
1684594524286122800,4.244122802734375,8.846264839172363,-6.321238994598389,-1.4452649354934692
1684594524302996000,4.260995849609375,8.469993591308594,-6.386443614959717,-1.6612170934677124
1684594524319869000,4.277868896484375,7.956135272979736,-5.614160060882568,-2.062613010406494
1684594524336741000,4.2947412109375,7.194619655609131,-4.837090969085693,-2.210369825363159
1684594524353602800,4.311602783203125,6.650850772857666,-4.859822750091553,-2.0141584873199463
1684594524370494700,4.32849462890625,7.055237770080566,-5.807978630065918,-1.7521443367004395
1684594524387359200,4.345359130859375,8.118846893310547,-6.9344000816345215,-1.8149559497833252
1684594524404232000,4.36223193359375,9.08135986328125,-7.677371501922607,-2.1984057426452637
1684594524421104000,4.379104248046875,8.739784240722656,-8.215158462524414,-2.6727828979492188
1684594524437974300,4.395974365234375,7.693522930145264,-8.813364028930664,-3.0376882553100586
1684594524454848500,4.4128486328125,7.248457908630371,-9.744172096252441,-3.10109806060791
1684594524471725600,4.4297255859375,7.564310550689697,-11.045867919921875,-2.7870402336120605
1684594524488589300,4.44658935546875,7.664809226989746,-11.273185729980469,-2.0165512561798096
1684594524505467100,4.463467041015625,6.0987067222595215,-9.778867721557617,-1.1156535148620605
1684594524522340000,4.480340087890625,4.292125701904297,-7.916055679321289,-0.39182472229003906
1684594524539213000,4.497213134765625,3.8919260501861572,-6.854838848114014,0.18364913761615753
1684594524556085000,4.5140849609375,5.007579803466797,-6.763911247253418,0.519242525100708
1684594524572958000,4.5309580078125,7.09292459487915,-6.980462074279785,0.5485545992851257
1684594524589830400,4.547830322265625,7.904689788818359,-7.23589563369751,0.2476571500301361
1684594524606703600,4.56470361328125,8.388039588928223,-7.494320392608643,-0.22193430364131927
1684594524623575600,4.581575439453125,7.347161769866943,-8.344968795776367,-0.8404789566993713
1684594524640448300,4.5984482421875,6.68435001373291,-9.565308570861816,-1.4021940231323242
1684594524657318700,4.615318603515625,5.982655048370361,-10.436894416809082,-1.7676976919174194
1684594524674196700,4.63219677734375,4.788636207580566,-10.164710998535156,-1.877767562866211
1684594524691065900,4.64906591796875,3.198007345199585,-8.416155815124512,-1.5176477432250977
1684594524707927000,4.665927001953125,1.9405791759490967,-6.678966045379639,-0.8703892230987549
1684594524724799000,4.682799072265625,1.5912270545959473,-5.312066078186035,-0.2512463629245758
1684594524741679000,4.69967919921875,1.968694806098938,-4.348955154418945,0.07058826833963394
1684594524758556700,4.716556640625,2.4388844966888428,-3.824328899383545,0.13878370821475983
1684594524775427300,4.73342724609375,2.5052852630615234,-3.776472330093384,-0.11485548317432404
1684594524792304600,4.7503046875,2.581855535507202,-4.917250633239746,-0.7674978375434875
1684594524809170400,4.76717041015625,3.0897321701049805,-6.426523208618164,-1.80717933177948
1684594524826051300,4.78405126953125,3.7262229919433594,-7.99382209777832,-2.857030153274536
1684594524842920000,4.800919921875,3.9218363761901855,-9.145368576049805,-3.207578659057617
1684594524859792400,4.81779248046875,3.490530014038086,-9.828518867492676,-2.778067111968994
1684594524876665600,4.83466552734375,2.2498514652252197,-9.826126098632812,-2.1852452754974365
1684594524893537800,4.851537841796875,1.308275818824768,-9.471389770507812,-1.6061822175979614
1684594524910410500,4.868410400390625,1.0929217338562012,-9.366703987121582,-1.0558329820632935
1684594524927281200,4.88528125,1.4368900060653687,-9.5324068069458,-0.3326023519039154
1684594524944157700,4.90215771484375,2.606980323791504,-9.906285285949707,0.4953143000602722
1684594524961028400,4.9190283203125,4.782055854797363,-9.967302322387695,1.1904292106628418
1684594524977898800,4.935898681640625,6.745367050170898,-9.473184585571289,1.7324036359786987
1684594524994776000,4.952776123046875,5.733801364898682,-8.380861282348633,2.059023857116699
1684594525011644200,4.96964404296875,4.969294548034668,-6.896114826202393,1.8400806188583374
1684594525028521500,4.986521484375,4.448855400085449,-5.554937839508057,1.290927767753601
1684594525045391400,5.003391357421875,3.9110686779022217,-4.676771640777588,0.755533754825592
1684594525062265000,5.02026513671875,3.820141315460205,-4.479363918304443,0.2626122832298279
1684594525079137000,5.037136962890625,3.9463627338409424,-4.937589645385742,-0.17288143932819366
1684594525096009500,5.054009521484375,4.346562385559082,-5.941378593444824,-0.7244270443916321
1684594525112882200,5.070882080078125,5.020740032196045,-7.514061450958252,-1.4009976387023926
1684594525129755000,5.0877548828125,6.230910301208496,-9.40917682647705,-2.0297117233276367
1684594525146625000,5.104625,6.8243303298950195,-10.905289649963379,-2.6195425987243652
1684594525163502300,5.12150244140625,6.151947021484375,-10.902297973632812,-3.1034910678863525
1684594525180372500,5.13837255859375,5.96171760559082,-9.869196891784668,-3.126222848892212
1684594525197242400,5.155242431640625,6.177071571350098,-9.019744873046875,-2.775674343109131
1684594525214120700,5.17212060546875,6.776473522186279,-8.602197647094727,-2.38265323638916
1684594525230990300,5.188990234375,7.514061450958252,-8.166105270385742,-1.9028922319412231
1684594525247863000,5.205863037109375,7.796414375305176,-7.379465103149414,-1.3178470134735107
1684594525264735700,5.22273583984375,7.539186000823975,-6.32363224029541,-0.9050851464271545
1684594525281613800,5.23961376953125,6.9445695877075195,-5.581258773803711,-0.7752745151519775
1684594525298480600,5.256480712890625,6.981658458709717,-5.327619552612305,-0.8422735929489136
1684594525315353900,5.273353759765625,7.545167922973633,-5.424529075622559,-0.9954141974449158
1684594525332226600,5.2902265625,7.3298139572143555,-5.246861934661865,-1.114457130432129
1684594525349099500,5.307099609375,6.722036838531494,-4.867001056671143,-1.3010972738265991
1684594525365971500,5.323971435546875,6.479165554046631,-4.917250633239746,-1.76051926612854
1684594525382844200,5.34084423828125,6.019145488739014,-5.44008207321167,-2.4460630416870117
1684594525399717000,5.357717041015625,5.415555953979492,-5.952744483947754,-3.059821844100952
1684594525416589600,5.374589599609375,4.6785664558410645,-6.4319071769714355,-3.586841106414795
1684594525433461800,5.391461669921875,4.588835716247559,-6.689135551452637,-3.826721668243408
1684594525450335000,5.4083349609375,5.289334297180176,-6.438487529754639,-3.6059837341308594
1684594525467207400,5.42520751953125,5.782256126403809,-5.747560024261475,-3.221935749053955
1684594525484080600,5.44208056640625,6.04247522354126,-5.271388053894043,-2.848057270050049
1684594525500952600,5.45895263671875,7.09292459487915,-5.523830890655518,-2.6464617252349854
1684594525517823200,5.4758232421875,8.076375007629395,-5.742774486541748,-2.469393014907837
1684594525534707000,5.49270703125,7.926225185394287,-5.298905849456787,-2.066800594329834
1684594525551570700,5.50957080078125,7.0031938552856445,-4.689932346343994,-1.5643078088760376
1684594525568443000,5.52644287109375,6.2297139167785645,-4.564309120178223,-1.1575279235839844
1684594525585316000,5.543316162109375,6.265605926513672,-5.182255744934082,-0.8231309652328491
1684594525602188800,5.560188720703125,6.879364967346191,-5.973681926727295,-0.4743770956993103
1684594525619061500,5.5770615234375,7.761120319366455,-5.91505765914917,-0.14356936514377594
1684594525635933400,5.593933349609375,7.974081516265869,-5.534000396728516,0.16809579730033875
1684594525652788200,5.610788330078125,7.8795647621154785,-5.759523868560791,0.4163511395454407
1684594525669679400,5.627679443359375,7.654639720916748,-6.662216663360596,0.6263213157653809
1684594525686552300,5.64455224609375,8.177471160888672,-7.371688365936279,0.7304090857505798
1684594525703424300,5.66142431640625,8.436494827270508,-7.716853141784668,0.768694281578064
1684594525720297500,5.67829736328125,8.184051513671875,-7.859824180603027,0.9457631707191467
1684594525737169200,5.695169189453125,7.8795647621154785,-8.089534759521484,1.2849457263946533
1684594525754043100,5.712043212890625,7.771289825439453,-8.429315567016602,1.6480566263198853
1684594525770914600,5.72891455078125,7.7007012367248535,-8.778668403625488,1.9351953268051147
1684594525787775500,5.745775390625,7.715058326721191,-8.698508262634277,2.2271196842193604
1684594525804663000,5.7626630859375,7.499105930328369,-8.455039024353027,2.5764718055725098
1684594525821533200,5.779533203125,7.4225358963012695,-8.412566184997559,2.9306094646453857
1684594525838405600,5.796405517578125,7.651050567626953,-8.280363082885742,3.2279176712036133
1684594525855278000,5.813278076171875,8.158926963806152,-7.761120319366455,3.37687087059021
1684594525872148700,5.830148681640625,7.788637638092041,-7.061817646026611,3.3200414180755615
1684594525889026600,5.847026611328125,7.048657417297363,-6.94038200378418,3.3966116905212402
1684594525905896200,5.863896240234375,7.631907939910889,-7.248457908630371,3.387040376663208
1684594525922769000,5.880768798828125,8.2157564163208,-7.627720355987549,3.3098719120025635
1684594525939641600,5.8976416015625,8.051848411560059,-7.258029460906982,3.0424740314483643
1684594525956514600,5.9145146484375,7.6875410079956055,-6.730412006378174,2.6937201023101807
1684594525973386800,5.93138671875,7.720442295074463,-6.638886451721191,2.435295343399048
1684594525990259700,5.948259765625,8.188837051391602,-6.826124668121338,2.301297187805176
1684594526007121700,5.96512158203125,8.590232849121094,-6.942176818847656,2.2055842876434326
1684594526024005000,5.982005126953125,8.537590980529785,-6.989434719085693,2.1098713874816895
1684594526040877600,5.998877685546875,8.317451477050781,-6.759125709533691,2.0380866527557373
1684594526057750300,6.015750244140625,8.139784812927246,-6.471987247467041,2.0811574459075928
1684594526074622700,6.032622802734375,8.408378601074219,-6.8171515464782715,2.186441659927368
1684594526091496000,6.049495849609375,9.832706451416016,-7.572685241699219,2.373081922531128
1684594526108367600,6.06636767578125,8.974281311035156,-7.583453178405762,2.0757737159729004
1684594526125240800,6.08324072265625,8.970093727111816,-7.750352382659912,1.970489501953125
1684594526142113500,6.100113525390625,8.267202377319336,-7.327421188354492,1.8987047672271729
1684594526158986500,6.116986572265625,7.802994728088379,-6.939185619354248,1.994417667388916
1684594526175858400,6.1338583984375,8.10987377166748,-7.299305438995361,2.23848557472229
1684594526192731600,6.150731689453125,8.84207820892334,-7.880163192749023,2.434098720550537
1684594526209604400,6.167604248046875,8.857032775878906,-8.062017440795898,2.4532413482666016
1684594526226477000,6.18447705078125,8.220541954040527,-7.60080099105835,2.3718855381011963
1684594526243349000,6.201348876953125,7.674380302429199,-6.982854843139648,2.4299113750457764
1684594526260222200,6.21822216796875,7.716254711151123,-6.820741176605225,2.5878376960754395
1684594526277094700,6.2350947265625,8.413763046264648,-7.052844524383545,2.688934564590454
1684594526293967600,6.251967529296875,8.819944381713867,-7.240681171417236,2.6697919368743896
1684594526310839800,6.26883984375,8.313861846923828,-7.061219692230225,2.4783661365509033
1684594526327712800,6.285712646484375,7.564908981323242,-6.991827964782715,2.2815563678741455
1684594526344585200,6.302585205078125,7.3746795654296875,-7.238886833190918,2.0991036891937256
1684594526361449700,6.31944970703125,7.557132244110107,-7.468597888946533,1.9028922319412231
1684594526378330400,6.336330322265625,7.552346706390381,-7.467999458312988,1.6444673538208008
1684594526395203300,6.353203369140625,7.112665176391602,-7.23170804977417,1.3142578601837158
1684594526412076000,6.370075927734375,6.58265495300293,-7.013961315155029,1.017547845840454
1684594526428949000,6.386948974609375,6.248258113861084,-6.87816858291626,0.7830511927604675
1684594526445820700,6.403820556640625,5.937191009521484,-6.589833736419678,0.5772684812545776
1684594526462694000,6.42069384765625,5.505286693572998,-5.928816318511963,0.41515472531318665
1684594526479566800,6.43756689453125,5.033900737762451,-5.047659397125244,0.3439682424068451
1684594526496442000,6.454442138671875,4.501497745513916,-4.295714855194092,0.38285163044929504
1684594526513309000,6.471308837890625,3.9690945148468018,-3.7016966342926025,0.527019202709198
1684594526530185000,6.48818505859375,3.6813576221466064,-3.328416347503662,0.7286145091056824
1684594526547045000,6.505045166015625,3.55214524269104,-3.146561861038208,0.9343972206115723
1684594526563921700,6.521921630859375,3.6089746952056885,-3.080759048461914,1.1066805124282837
1684594526580802300,6.53880224609375,4.047459602355957,-3.087339401245117,1.2550355195999146
1684594526597677600,6.555677490234375,4.439284324645996,-3.2512478828430176,1.384247899055481
1684594526614546000,6.5725458984375,4.626522541046143,-3.528815269470215,1.3938192129135132
1684594526631421000,6.5894208984375,4.838287353515625,-3.9978084564208984,1.2592228651046753
1684594526648293000,6.606293212890625,5.099104881286621,-4.662415027618408,1.0241280794143677
1684594526665165800,6.623165771484375,5.450850009918213,-5.4658050537109375,0.7459624409675598
1684594526682038500,6.64003857421875,5.878567218780518,-6.235695838928223,0.4486542344093323
1684594526698908400,6.656908447265625,6.286543369293213,-6.896114826202393,0.13698910176753998
1684594526715783700,6.67378369140625,6.580262184143066,-7.445865631103516,-0.1746760457754135
1684594526732656600,6.69065673828125,7.09711217880249,-7.829315662384033,-0.3762713670730591
1684594526749529300,6.707529296875,7.431509017944336,-7.968697547912598,-0.36670008301734924
1684594526766402000,6.724402099609375,7.258627414703369,-7.76889705657959,0.035892341285943985
1684594526783274200,6.741274169921875,7.3160552978515625,-7.818548202514648,0.7393822073936462
1684594526800147000,6.75814697265625,7.941180229187012,-7.937591075897217,1.5050854682922363
1684594526817020000,6.77502001953125,8.46461009979248,-7.797610759735107,2.1948165893554688
1684594526833892900,6.791892822265625,8.840283393859863,-7.499105930328369,2.764906644821167
1684594526850765000,6.80876513671875,8.72901725769043,-7.1988067626953125,3.253640651702881
1684594526867638000,6.825637939453125,9.013762474060059,-6.81296443939209,3.4552359580993652
1684594526884510500,6.842510498046875,8.5704927444458,-6.932007312774658,3.717848300933838
1684594526901383700,6.8593837890625,8.758329391479492,-7.325028419494629,3.9332022666931152
1684594526918255900,6.876255859375,9.275178909301758,-7.742575645446777,4.0426740646362305
1684594526935128300,6.89312841796875,9.147761344909668,-8.176873207092285,3.965505361557007
1684594526952001300,6.910001220703125,8.709874153137207,-8.399405479431152,3.7112679481506348
1684594526968874200,6.926874267578125,7.33340311050415,-8.797212600708008,3.762713670730591
1684594526985746400,6.943746337890625,8.187641143798828,-7.707281589508057,2.9030921459198
1684594527002619400,6.960619384765625,8.852845191955566,-8.193024635314941,3.147160053253174
1684594527019492000,6.9774921875,9.17288589477539,-8.366504669189453,3.290729284286499
1684594527036364800,6.99436474609375,9.139386177062988,-8.280363082885742,3.204587697982788
1684594527053237200,7.0112373046875,8.874979019165039,-7.853243827819824,2.9557342529296875
1684594527070110200,7.028110107421875,8.313861846923828,-7.086344242095947,2.7601208686828613
1684594527086982700,7.044982666015625,8.039883613586426,-6.626922130584717,2.8516464233398438
1684594527103855600,7.061855712890625,8.268997192382812,-6.642475605010986,3.191427230834961
1684594527120727800,7.078727783203125,8.660821914672852,-6.873981475830078,3.492922782897949
1684594527137587700,7.095587646484375,8.809774398803711,-7.094718933105469,3.555136203765869
1684594527154476000,7.11247607421875,8.680562019348145,-7.012166976928711,3.2919256687164307
1684594527171346400,7.129346435546875,8.10269546508789,-6.775277137756348,2.9138598442077637
1684594527188218400,7.14621826171875,7.529614448547363,-6.634100914001465,2.679363250732422
1684594527205091300,7.16309130859375,7.201199531555176,-6.738188743591309,2.6452653408050537
1684594527221964000,7.179964111328125,7.202396392822266,-7.010970115661621,2.678765058517456
1684594527238836700,7.196836669921875,7.283751964569092,-7.187440872192383,2.558525562286377
1684594527255709000,7.213708984375,7.193423271179199,-7.129415035247803,2.2618155479431152
1684594527272582100,7.23058203125,6.8967132568359375,-6.9690961837768555,1.8406788110733032
1684594527289454000,7.2474541015625,6.347560405731201,-6.703492641448975,1.3716856241226196
1684594527306328600,7.26432861328125,5.740381717681885,-6.351747512817383,0.9266205430030823
1684594527323199700,7.28119970703125,5.128417015075684,-5.956333637237549,0.5581258535385132
1684594527340073000,7.298072998046875,4.569094657897949,-5.595615863800049,0.2476571500301361
1684594527356945400,7.3149453125,4.0666022300720215,-5.239683151245117,0.037088751792907715
1684594527373818600,7.331818603515625,3.707080364227295,-4.784449100494385,-0.019740786403417587
1684594527390690300,7.348690185546875,3.4707891941070557,-4.24367094039917,0.07597211748361588
1684594527407563500,7.3655634765625,3.363710403442383,-3.6843485832214355,0.23449662327766418
1684594527424436200,7.382436279296875,3.3571300506591797,-3.2309088706970215,0.43609192967414856
1684594527441309200,7.39930908203125,3.641875982284546,-3.0029923915863037,0.6424728631973267
1684594527458181400,7.416181396484375,4.057629108428955,-3.08135724067688,0.8243274092674255
1684594527475054300,7.433054443359375,4.435096740722656,-3.3649067878723145,0.9439685344696045
1684594527491926800,7.4499267578125,4.913661479949951,-3.7393836975097656,1.0444670915603638
1684594527508800000,7.466800048828125,5.349753379821777,-4.208974838256836,1.0630114078521729
1684594527525672200,7.483672119140625,5.628517150878906,-4.687539577484131,0.9768698215484619
1684594527542545000,7.500544921875,5.806782245635986,-5.166104316711426,0.7848458290100098
1684594527559417900,7.51741796875,5.843272686004639,-5.753541946411133,0.5641079545021057
1684594527576290600,7.53429052734375,6.046064376831055,-6.422336101531982,0.3332005441188812
1684594527593162500,7.55116259765625,6.602396011352539,-7.09292459487915,0.18424734473228455
1684594527610036000,7.568035888671875,7.258627414703369,-7.797610759735107,0.11246266216039658
1684594527626905900,7.58490576171875,7.627720355987549,-8.13380241394043,0.2267199456691742
1684594527643784000,7.601783935546875,7.587640762329102,-7.823931694030762,0.6628118753433228
1684594527660653600,7.618653564453125,7.825128078460693,-7.659425258636475,1.3525429964065552
1684594527677524000,7.63552392578125,8.336593627929688,-7.839485168457031,2.0751755237579346
1684594527694401800,7.65240185546875,8.837292671203613,-7.8765740394592285,2.6877379417419434
1684594527711272200,7.669272216796875,9.131011009216309,-7.534400463104248,3.152543783187866
1684594527728144400,7.686144287109375,8.423334121704102,-7.131209850311279,3.401397466659546
1684594527745017300,7.703017333984375,8.298309326171875,-6.882954120635986,3.6987056732177734
1684594527761890000,7.71989013671875,8.632705688476562,-6.952346324920654,4.048057556152344
1684594527778763000,7.736762939453125,9.015557289123535,-7.336394309997559,4.406980991363525
1684594527795635200,7.75363525390625,9.518648147583008,-7.89332389831543,4.631308078765869
1684594527812508200,7.770508056640625,1.7874385118484497,-6.8620171546936035,3.34576416015625
1684594527829372400,7.787372314453125,6.500102519989014,-8.005785942077637,3.744169235229492
1684594527846253800,7.80425390625,8.444271087646484,-7.503891944885254,3.3056845664978027
1684594527863125800,7.821125732421875,8.422137260437012,-7.919644832611084,3.2380871772766113
1684594527879999000,7.8379990234375,9.08135986328125,-8.185248374938965,3.4582269191741943
1684594527896871400,7.854871337890625,9.78963565826416,-8.70508861541748,3.975076675415039
1684594527913744600,7.87174462890625,9.004789352416992,-8.13380241394043,3.960719585418701
1684594527930616300,7.8886162109375,8.776275634765625,-7.142575740814209,3.6939198970794678
1684594527947489500,7.905489501953125,9.098708152770996,-6.574878215789795,3.5988051891326904
1684594527964362200,7.9223623046875,9.025128364562988,-6.187241077423096,3.6329028606414795
1684594527981235200,7.939235107421875,8.70090103149414,-6.238687038421631,3.6329028606414795
1684594527998107600,7.956107666015625,8.344968795776367,-6.567699909210205,3.5748770236968994
1684594528014980400,7.97298046875,7.801798343658447,-6.665805816650391,3.3780672550201416
1684594528031853300,7.989853271484375,7.500302791595459,-6.539584159851074,3.090928554534912
1684594528048726000,8.00672607421875,7.428517818450928,-6.448058605194092,2.799004316329956
1684594528065598200,8.02359814453125,7.524828910827637,-6.543173313140869,2.554936408996582
1684594528082470000,8.040469970703125,7.458428382873535,-6.690331935882568,2.3198416233062744
1684594528099344000,8.05734375,7.153343200683594,-6.722036838531494,2.0518453121185303
1684594528116216800,8.074216796875,6.600003242492676,-6.580860614776611,1.7359927892684937
1684594528133089000,8.091089111328126,6.020939826965332,-6.209972858428955,1.3770694732666016
1684594528149962200,8.107962158203126,5.614758491516113,-5.901896953582764,1.046859860420227
1684594528166834700,8.124834716796874,5.256433010101318,-5.790032386779785,0.7262216806411743
1684594528183697000,8.14169677734375,5.089533805847168,-5.7888360023498535,0.4103690981864929
1684594528200579800,8.158579833984374,4.917250633239746,-5.605785369873047,0.11844471842050552
1684594528217449200,8.17544921875,4.533202648162842,-5.078167915344238,-0.12502498924732208
1684594528234329000,8.1923291015625,4.325624942779541,-4.46560525894165,-0.2153540402650833
1684594528251198500,8.209198486328125,3.875774383544922,-4.048655986785889,-0.14835500717163086
1684594528268071000,8.22607080078125,3.1405797004699707,-3.9463627338409424,0.009571290574967861
1684594528284943400,8.242943359375,3.407379388809204,-3.9290146827697754,0.37806597352027893
1684594528301805600,8.2598056640625,4.151547431945801,-3.9559340476989746,0.7998009920120239
1684594528318689500,8.276689453125,4.613960266113281,-3.9152560234069824,1.1204391717910767
1684594528335561500,8.2935615234375,4.7952165603637695,-3.940380573272705,1.316650629043579
1684594528352434400,8.310434326171874,5.068596363067627,-4.285545349121094,1.4362918138504028
1684594528369307100,8.32730712890625,5.400600910186768,-4.927420139312744,1.4979069232940674
1684594528386180000,8.34418017578125,5.675177097320557,-5.6309099197387695,1.3968101739883423
1684594528403052300,8.36105224609375,5.897111415863037,-6.2428741455078125,1.1904292106628418
1684594528419925200,8.37792529296875,6.31944465637207,-6.778866767883301,0.9218349456787109
1684594528436798200,8.394798095703125,6.549753665924072,-7.1228346824646,0.6293123364448547
1684594528453671200,8.411671142578125,6.683752059936523,-7.189833641052246,0.42831525206565857
1684594528470543400,8.42854345703125,6.778268337249756,-6.955935478210449,0.5581258535385132
1684594528487416300,8.445416259765626,6.876374244689941,-6.57547664642334,0.9990034699440002
1684594528504288800,8.462288818359376,7.3292155265808105,-6.458826541900635,1.568495273590088
1684594528521151200,8.479151123046876,7.9591264724731445,-6.581458568572998,2.1481566429138184
1684594528538034000,8.496033935546874,9.032905578613281,-6.729813575744629,2.5980072021484375
1684594528554907000,8.512906982421875,9.4390869140625,-6.927819728851318,3.009572744369507
1684594528571779800,8.52977978515625,9.674181938171387,-7.274180889129639,3.4067811965942383
1684594528588652800,8.54665283203125,9.522237777709961,-7.479963779449463,3.679563045501709
1684594528605524700,8.563524658203125,8.968897819519043,-7.602595806121826,3.875176191329956
1684594528622397700,8.580397705078125,8.755337715148926,-7.774280548095703,3.937389612197876
1684594528639270700,8.597270751953126,22.70130729675293,-13.487743377685547,7.771289825439453
1684594528656143400,8.614143310546876,4.898108005523682,-7.034300327301025,3.4719855785369873
1684594528673015800,8.631015869140626,8.382058143615723,-7.472187042236328,3.9278182983398438
1684594528689888800,8.647888671875,8.298309326171875,-6.917052268981934,3.751347780227661
1684594528706761500,8.664761474609374,8.992227554321289,-7.439883708953857,3.7459638118743896
1684594528723634200,8.68163427734375,8.70807933807373,-7.8113694190979,3.6017963886260986
1684594528740506600,8.698506591796875,9.291330337524414,-8.162516593933105,3.692723512649536
1684594528757377000,8.715376953125,10.819746017456055,-8.756534576416016,4.228715896606445
1684594528774254800,8.7322548828125,9.484550476074219,-8.843274116516113,4.223331928253174
1684594528791125200,8.749125244140625,8.25404167175293,-7.676175117492676,3.6257245540618896
1684594528807997700,8.765997802734375,8.1224365234375,-6.9583282470703125,3.4157543182373047
1684594528824870400,8.782870361328126,8.153543472290039,-6.409175395965576,3.541377544403076
1684594528841732600,8.799732666015625,7.976474285125732,-6.303891181945801,3.78544545173645
1684594528858616000,8.816615966796874,7.887341499328613,-6.62931489944458,3.899702787399292
1684594528875477500,8.8334775390625,7.548757076263428,-6.74237585067749,3.817748546600342
1684594528892361500,8.850361572265625,7.1473612785339355,-6.549753665924072,3.597608804702759
1684594528909234200,8.867234130859375,6.932605266571045,-6.40020227432251,3.3200414180755615
1684594528926107100,8.884107177734375,6.909275531768799,-6.485147476196289,3.0376882553100586
1684594528942979000,8.90097900390625,6.990631580352783,-6.585047721862793,2.7457640171051025
1684594528959852300,8.917852294921875,6.80458927154541,-6.540780544281006,2.434697151184082
1684594528976724700,8.934724853515625,6.537789821624756,-6.548557281494141,2.094916343688965
1684594528993598000,8.951597900390626,6.294918060302734,-6.623332977294922,1.7545372247695923
1684594529010470100,8.96847021484375,5.951548099517822,-6.63051176071167,1.3812568187713623
1684594529027343000,8.985343017578124,5.483152866363525,-6.4085774421691895,1.012762188911438
1684594529044216000,9.002216064453124,4.971088886260986,-6.02811861038208,0.6681957244873047
1684594529061089000,9.019089111328125,4.478765964508057,-5.633901119232178,0.36670008301734924
1684594529077958700,9.035958740234374,4.1383867263793945,-5.283352375030518,0.09930214285850525
1684594529094836500,9.05283642578125,3.93679141998291,-5.000401020050049,-0.07776673883199692
1684594529111707000,9.069706787109375,3.882952928543091,-4.6510491371154785,-0.14416755735874176
1684594529128579600,9.08657958984375,3.7812578678131104,-4.215555191040039,-0.053240302950143814
1684594529145451800,9.10345166015625,3.545564889907837,-3.871587038040161,0.19621145725250244
1684594529162325000,9.120324951171876,3.7836508750915527,-3.7489547729492188,0.5120640397071838
1684594529179197700,9.13719775390625,4.217947959899902,-3.7986059188842773,0.7806583642959595
1684594529196070700,9.154070556640624,4.566701889038086,-3.8865420818328857,0.9433703422546387
1684594529212942600,9.170942626953124,4.948357105255127,-3.9595232009887695,1.0295119285583496
1684594529229815800,9.18781591796875,5.096712112426758,-4.122235298156738,1.0630114078521729
1684594529246688800,9.204688720703125,4.9980082511901855,-4.4614176750183105,1.0049854516983032
1684594529263561500,9.2215615234375,5.096114158630371,-5.078167915344238,0.8991031050682068
1684594529280433700,9.23843359375,5.552545070648193,-5.84865665435791,0.8027920126914978
1684594529297306600,9.255306640625,6.156134605407715,-6.5150580406188965,0.6921239495277405
1684594529314179300,9.272179443359375,6.573681831359863,-7.041478633880615,0.605384111404419
1684594529331052500,9.289052490234376,7.124031066894531,-7.454240798950195,0.6005984544754028
1684594529347924700,9.3059248046875,7.466803073883057,-7.441678524017334,0.8303094506263733
1684594529364795100,9.322795166015625,7.015756130218506,-6.829713821411133,1.3286148309707642
1684594529381660400,9.339660400390626,6.957729816436768,-6.58265495300293,1.8747764825820923
1684594529398543400,9.35654345703125,7.836493968963623,-6.954739093780518,2.458625316619873
1684594529415415600,9.37341552734375,8.7445707321167,-7.365706443786621,2.985046148300171
1684594529432288800,9.390288818359375,9.159127235412598,-7.386643409729004,3.276970624923706
1684594529449161500,9.407161376953125,8.95394229888916,-7.3776702880859375,3.62153697013855
1684594529466034400,9.424034423828125,9.20159912109375,-7.297510623931885,3.899702787399292
1684594529482906600,9.44090673828125,9.196813583374023,-7.355536937713623,4.110270977020264
1684594529499779800,9.45777978515625,0.8644071817398071,-6.203392505645752,3.1645078659057617
1684594529516652300,9.47465234375,15.728621482849121,-10.03131103515625,4.995615482330322
1684594529533525500,9.491525390625,10.130613327026367,-8.099106788635254,3.8847475051879883
1684594529550397700,9.508397705078124,8.875576972961426,-6.817749977111816,3.631706476211548
1684594529567259600,9.525259765625,9.890732765197754,-5.4526448249816895,3.064607620239258
1684594529584143000,9.54214306640625,10.187442779541016,-5.745765209197998,3.298506021499634
1684594529601016300,9.559016357421875,10.62413215637207,-6.426523208618164,3.4851462841033936
1684594529617888500,9.575888427734375,9.713663101196289,-6.427121639251709,3.1064820289611816
1684594529634761500,9.592761474609375,8.422137260437012,-6.695117950439453,2.909074068069458
1684594529651634400,9.609634521484375,8.099106788635254,-7.11984395980835,2.970689296722412
1684594529668507000,9.6265068359375,11.170294761657715,-8.048856735229492,3.617349624633789
1684594529685379300,9.64337939453125,12.099308013916016,-8.947361946105957,4.277170658111572
1684594529702252300,9.660252197265624,9.289535522460938,-7.704290866851807,3.8703906536102295
1684594529719125200,9.677125244140624,7.904689788818359,-6.221338748931885,3.273381471633911
1684594529735988000,9.693988037109374,7.978867053985596,-5.68175745010376,3.3074791431427
1684594529752864500,9.710864501953125,8.608179092407227,-5.617151260375977,3.580260992050171
1684594529769746200,9.72774609375,8.885746955871582,-5.85703182220459,3.628117322921753
1684594529786616300,9.7446162109375,8.347960472106934,-6.117849349975586,3.3308091163635254
1684594529803489000,9.761489013671875,7.6666035652160645,-6.305685997009277,2.9904301166534424
1684594529820361500,9.778361572265625,7.132406234741211,-6.293721675872803,2.6554348468780518
1684594529837231900,9.79523193359375,6.808178424835205,-6.22492790222168,2.310270309448242
1684594529854109700,9.812109619140625,6.865606307983398,-6.2913289070129395,1.9896320104599
1684594529870980000,9.82897998046875,7.081558704376221,-6.501298904418945,1.6737794876098633
1684594529887852500,9.8458525390625,6.924230575561523,-6.5904316902160645,1.3387842178344727
1684594529904714800,9.86271484375,6.356533527374268,-6.482754707336426,1.0031908750534058
1684594529921587200,9.879587158203124,5.6590256690979,-6.274579048156738,0.7016952633857727
1684594529938471200,9.89647119140625,5.053043365478516,-6.176473617553711,0.47198426723480225
1684594529955343400,9.91334326171875,4.838287353515625,-6.180062770843506,0.3038884699344635
1684594529972216600,9.930216552734375,4.833501815795898,-6.035895347595215,0.1704886108636856
1684594529989089300,9.94708935546875,4.878965377807617,-5.5483574867248535,0.10408778488636017
1684594530005961700,9.963961669921876,4.713262557983398,-4.778466701507568,0.17168502509593964
1684594530022834200,9.980834228515626,4.429114818572998,-4.147359848022461,0.33020952343940735
1684594530039707400,9.997707275390624,4.261617183685303,-3.8937206268310547,0.527019202709198
1684594530056582400,10.01458251953125,4.318446636199951,-3.8368911743164062,0.7328019142150879
1684594530073450800,10.03145068359375,4.385445594787598,-3.8763725757598877,0.9672985672950745
1684594530090325500,10.048325439453125,4.447659015655518,-3.958326816558838,1.2161520719528198
1684594530107198200,10.0651982421875,4.762913703918457,-4.155734539031982,1.4315061569213867
1684594530124071000,10.08207080078125,5.317450046539307,-4.478167533874512,1.6271194219589233
1684594530140944100,10.098944091796875,5.824728488922119,-4.896313190460205,1.7324036359786987
1684594530157816300,10.11581640625,6.150750637054443,-5.236692428588867,1.6701902151107788
1684594530174689300,10.132689208984376,6.242276191711426,-5.4897332191467285,1.4781662225723267
1684594530191562200,10.149562255859376,5.980860233306885,-5.717649936676025,1.32921302318573
1684594530208435200,10.166435302734374,5.821139335632324,-6.223731517791748,1.2759727239608765
1684594530225307400,10.183307373046874,6.354140758514404,-7.090531826019287,1.3280165195465088
1684594530242180400,10.200180419921875,7.140182971954346,-7.9968132972717285,1.4757733345031738
1684594530259042600,10.21704248046875,7.552346706390381,-8.548358917236328,1.6666009426116943
1684594530275926000,10.233926025390625,6.887141704559326,-8.073982238769531,1.9974087476730347
1684594530292798500,10.250798583984375,6.51326322555542,-7.610372543334961,2.4424736499786377
1684594530309671400,10.26767138671875,6.9756760597229,-7.579265594482422,2.801995277404785
1684594530326544100,10.284544189453126,7.772486209869385,-7.654041290283203,3.0131618976593018
1684594530343417000,10.3014169921875,8.435895919799805,-7.699504852294922,3.0035905838012695
1684594530360289000,10.3182890625,7.851449489593506,-7.094718933105469,2.7936203479766846
1684594530377162200,10.335162353515624,6.641279220581055,-6.292525291442871,2.688336133956909
1684594530394035200,10.35203515625,6.067600250244141,-5.994618892669678,2.8797619342803955
1684594530410908200,10.368908203125,6.398407936096191,-6.4510498046875,3.339184045791626
1684594530427780600,10.385780517578125,7.393223762512207,-7.177271366119385,3.8985064029693604
1684594530444653600,10.402653564453125,7.967501163482666,-7.6630144119262695,4.31007194519043
1684594530461526000,10.419526123046875,8.02074146270752,-7.7832536697387695,4.4344987869262695
1684594530478399200,10.436399169921875,7.682755470275879,-7.939385414123535,4.333401679992676
1684594530495271700,10.453271728515626,7.88913631439209,-8.279166221618652,4.237689018249512
1684594530512144600,10.47014453125,8.324031829833984,-8.47178840637207,4.213760852813721
1684594530529017300,10.487017333984374,8.21874713897705,-8.408976554870605,4.156332969665527
1684594530545890300,10.503890380859374,7.6600236892700195,-8.23549747467041,4.146761417388916
1684594530562762500,10.520762451171874,7.6875410079956055,-7.89631462097168,4.213760852813721
1684594530579635500,10.537635498046875,8.057829856872559,-7.5774712562561035,4.357928276062012
1684594530596508200,10.554508056640625,8.161917686462402,-7.381857872009277,4.487739086151123
1684594530613381400,10.57138134765625,8.090133666992188,-7.310073375701904,4.521238327026367
1684594530630253600,10.588253662109375,7.800003528594971,-7.447660446166992,4.482355117797852
1684594530647126500,10.60512646484375,7.843672752380371,-7.734799385070801,4.396213531494141
1684594530663999200,10.621999267578126,7.93579626083374,-8.045268058776855,4.208974838256836
1684594530680872400,10.63887255859375,7.559525012969971,-8.062017440795898,3.7974095344543457
1684594530697744400,10.655744384765624,6.842276573181152,-7.690532207489014,3.3236305713653564
1684594530714617600,10.67261767578125,6.3493547439575195,-7.252645492553711,2.998206853866577
1684594530731490600,10.689490478515625,6.400800704956055,-7.018746852874756,2.8935208320617676
1684594530748363500,10.706363525390625,6.897311210632324,-7.091728210449219,2.8839495182037354
1684594530765235700,10.723235595703125,7.288537979125977,-7.040282249450684,2.7930221557617188
1684594530782108700,10.740108642578125,7.135396957397461,-6.900302410125732,2.534597396850586
1684594530798981000,10.756981201171875,6.729215621948242,-6.759724140167236,2.1613171100616455
1684594530815854300,10.773854248046876,6.156134605407715,-6.51745080947876,1.7258232831954956
1684594530832726800,10.790726806640626,5.983851432800293,-6.410970211029053,1.3286148309707642
1684594530849599700,10.807599853515624,6.223133563995361,-6.568896293640137,1.0510473251342773
1684594530866472700,10.82447265625,6.2428741455078125,-6.682555675506592,0.7782655358314514
1684594530883345400,10.841345458984375,5.635695457458496,-6.3738813400268555,0.5102694034576416
1684594530900217900,10.8582177734375,4.741377830505371,-5.691926956176758,0.3332005441188812
1684594530917090800,10.8750908203125,4.113860130310059,-5.154737949371338,0.31465616822242737
1684594530933963800,10.8919638671875,3.9840497970581055,-4.934598445892334,0.41994038224220276
1684594530950828500,10.90882861328125,4.604389190673828,-4.880161762237549,0.664606511592865
1684594530967709000,10.925708984375,5.142175674438477,-4.634299278259277,1.0480563640594482
1684594530984582000,10.942581787109376,4.753342151641846,-4.136591911315918,1.3980066776275635
1684594531001444000,10.959444091796875,4.274179458618164,-3.686741590499878,1.622931957244873
1684594531018328000,10.976328125,4.235296249389648,-3.5294134616851807,1.8861424922943115
1684594531035200000,10.993199951171874,4.579264163970947,-3.6029927730560303,2.183450698852539
1684594531052072700,11.01007275390625,4.937589645385742,-3.7052857875823975,2.4323041439056396
1684594531068946000,11.02694580078125,5.157131195068359,-3.8015968799591064,2.5710878372192383
1684594531085819000,11.04381884765625,5.368297576904297,-4.175475597381592,2.5800609588623047
1684594531102691000,11.060691162109375,5.787041664123535,-4.960321426391602,2.445464849472046
1684594531119564000,11.07756396484375,6.334399700164795,-5.826523303985596,2.1720848083496094
1684594531136436700,11.094436767578125,6.580262184143066,-6.423532485961914,1.7838492393493652
1684594531153310000,11.11131005859375,6.396613121032715,-6.942774772644043,1.3184453248977661
1684594531170182100,11.12818212890625,6.748358249664307,-7.765307903289795,0.9732806086540222
1684594531187058000,11.145057861328125,7.401000499725342,-8.665008544921875,0.7716853022575378
1684594531203925000,11.161925048828126,7.439285755157471,-8.822935104370117,0.6849454641342163
1684594531220801000,11.178801025390625,6.548557281494141,-7.941180229187012,0.8817551732063293
1684594531237673200,11.195673095703125,6.695117950439453,-7.641479015350342,1.3800604343414307
1684594531254546200,11.212546142578125,7.99382209777832,-7.943572998046875,1.8640087842941284
1684594531271419000,11.2294189453125,8.85643482208252,-7.813164234161377,2.0751755237579346
1684594531288292000,11.2462919921875,8.648259162902832,-7.104888439178467,2.1092731952667236
1684594531305164300,11.263164306640626,7.867600917816162,-6.381059646606445,2.191227436065674
1684594531322037200,11.280037353515626,7.686344623565674,-6.352345943450928,2.554936408996582
1684594531338910200,11.29691015625,8.203194618225098,-6.757331371307373,3.1339993476867676
1684594531355783200,11.313783203125,8.863015174865723,-7.1958160400390625,3.717249870300293
1684594531372655600,11.330655517578125,8.73918628692627,-7.383054256439209,4.24367094039917
1684594531389528000,11.347528076171875,8.165507316589355,-6.999604225158691,4.444668292999268
1684594531406401500,11.364401611328125,7.380661487579346,-6.4947190284729,4.2586259841918945
1684594531423274200,11.381274169921875,7.1856465339660645,-6.551548480987549,4.176671981811523
1684594531440146200,11.398146240234375,7.692326545715332,-6.839883327484131,4.195814609527588
1684594531457020200,11.415020263671876,8.01775074005127,-7.118049144744873,4.171886444091797
1684594531473892400,11.431892333984376,8.048856735229492,-7.605587005615234,4.18564510345459
1684594531490765000,11.44876513671875,8.184051513671875,-8.060222625732422,4.266402721405029
1684594531507638000,11.465637939453124,8.137392044067383,-8.24686336517334,4.261617183685303
1684594531524510500,11.482510498046874,8.089534759521484,-8.21276569366455,4.199403762817383
1684594531541383400,11.499383544921875,8.164310455322266,-7.916653633117676,4.118047714233398
1684594531558256600,11.516256591796875,8.23430061340332,-7.46201753616333,3.975076675415039
1684594531575128800,11.53312890625,8.26121997833252,-7.1509504318237305,3.8225340843200684
1684594531592001800,11.550001708984375,8.331808090209961,-6.907480716705322,3.6939198970794678
1684594531608874800,11.566874755859375,8.340781211853027,-6.7351975440979,3.5982069969177246
1684594531625747700,11.583747802734376,8.336593627929688,-6.787241458892822,3.5120654106140137
1684594531642608600,11.600608642578125,8.408976554870605,-7.036095142364502,3.4779677391052246
1684594531659493000,11.6174931640625,8.447860717773438,-7.237092018127441,3.4779677391052246
1684594531676365800,11.63436572265625,8.037490844726562,-7.201797962188721,3.3439695835113525
1684594531693238800,11.65123876953125,7.588238716125488,-6.936792850494385,3.0664021968841553
1684594531710111200,11.668111328125,7.3914289474487305,-6.619743824005127,2.7314071655273438
1684594531726984200,11.684984130859375,7.237690448760986,-6.351149559020996,2.444268226623535
1684594531743856600,11.701856689453125,7.079763889312744,-6.153741836547852,2.2199411392211914
1684594531760730000,11.718730224609375,6.969694137573242,-6.062216281890869,2.0811574459075928
1684594531777599500,11.735599609375,6.8033928871154785,-6.142973899841309,1.994417667388916
1684594531794477800,11.752477783203124,6.732206344604492,-6.295516490936279,1.9130617380142212
1684594531811348200,11.76934814453125,6.656832695007324,-6.437889099121094,1.7694923877716064
1684594531828221200,11.78622119140625,6.403791427612305,-6.484549522399902,1.5200406312942505
1684594531845093000,11.803093017578124,5.959324836730957,-6.233303070068359,1.170688509941101
1684594531861966300,11.81996630859375,5.480760097503662,-5.762515068054199,0.8123632669448853
1684594531878839600,11.836839599609375,5.087738990783691,-5.282754421234131,0.4821537733078003
1684594531895712000,11.8537119140625,4.9190449714660645,-4.889134883880615,0.2147558331489563
1684594531912584200,11.870584228515625,4.6989054679870605,-4.634897232055664,0.004187439568340778
1684594531929457700,11.887457763671875,4.454837322235107,-4.528416633605957,-0.08195417374372482
1684594531946330600,11.90433056640625,4.19282341003418,-4.590630054473877,0.06640082597732544
1684594531963203300,11.921203369140626,4.068994998931885,-4.595416069030762,0.4205385744571686
1684594531980075800,11.93807568359375,4.071985721588135,-4.305285930633545,0.8225327730178833
1684594531996948700,11.95494873046875,4.185046672821045,-3.895515203475952,1.129412293434143
1684594532013821400,11.971821533203125,4.474578380584717,-3.6675989627838135,1.4123635292053223
1684594532030694700,11.988694580078125,4.942375183105469,-3.7459638118743896,1.6755740642547607
1684594532047566800,12.00556689453125,5.459224700927734,-4.149752616882324,1.9052850008010864
1684594532064439800,12.022439697265625,6.0538411140441895,-4.835894584655762,2.038684844970703
1684594532081306600,12.039306640625,6.533602237701416,-5.61116886138916,2.004587173461914
1684594532098185700,12.056185791015626,6.646064758300781,-6.21356201171875,1.7742780447006226
1684594532115058000,12.073057861328126,6.4905314445495605,-6.675975322723389,1.4626128673553467
1684594532131931100,12.08993115234375,6.760322093963623,-7.321439266204834,1.2801600694656372
1684594532148803600,12.106803466796874,7.264609336853027,-8.049455642700195,1.2604193687438965
1684594532165676800,12.1236767578125,7.303493022918701,-8.313263893127441,1.4225330352783203
1684594532182549000,12.140549072265625,6.9104719161987305,-7.810771465301514,1.8442680835723877
1684594532199422200,12.157422119140625,7.027719974517822,-7.435098171234131,2.3330020904541016
1684594532216295000,12.174294921875,7.680960655212402,-7.356733322143555,2.7116663455963135
1684594532233166300,12.191166259765625,8.071588516235352,-7.1958160400390625,2.898306369781494
1684594532250041900,12.208041748046876,7.864011764526367,-6.6454668045043945,2.83669114112854
1684594532266913300,12.224913330078126,7.5804619789123535,-6.161518096923828,2.7942185401916504
1684594532283786000,12.241785888671876,7.899903774261475,-6.187241077423096,2.9856443405151367
1684594532300659200,12.2586591796875,8.10987377166748,-6.212365627288818,3.239881753921509
1684594532317528800,12.27552880859375,8.004590034484863,-6.150152206420898,3.460021495819092
1684594532334398500,12.2923984375,8.258827209472656,-6.52462911605835,3.7226338386535645
1684594532351277300,12.30927734375,8.59920597076416,-6.894918441772461,4.019343852996826
1684594532368150300,12.326150390625,7.9968132972717285,-6.615556240081787,4.009772777557373
1684594532385022500,12.3430224609375,7.323832035064697,-6.407381057739258,3.8327035903930664
1684594532401895700,12.359895751953125,8.117650985717773,-6.945765972137451,3.9421753883361816
1684594532418768400,12.376768310546876,9.083752632141113,-7.579864025115967,4.1383867263793945
1684594532435641000,12.39364111328125,9.075976371765137,-8.072187423706055,4.099503517150879
1684594532452513800,12.410513671875,9.05862808227539,-8.449654579162598,3.926621913909912
1684594532469386800,12.42738671875,8.967700958251953,-8.372486114501953,3.9122650623321533
1684594532486259700,12.444259765625,8.690134048461914,-8.128418922424316,4.0079779624938965
1684594532503132700,12.461132568359375,8.554939270019531,-7.76470947265625,4.089931964874268
1684594532520005000,12.478005126953125,8.548358917236328,-7.301100254058838,4.1144585609436035
1684594532536877800,12.4948779296875,8.589634895324707,-6.942774772644043,4.148556232452393
1684594532553750500,12.51175048828125,8.784649848937988,-6.829115867614746,4.196412563323975
1684594532570621700,12.52862158203125,8.688937187194824,-6.684948444366455,4.086342811584473
1684594532587498500,12.54549853515625,8.120641708374023,-6.5150580406188965,3.7944185733795166
1684594532604369200,12.562369140625,7.782057285308838,-6.508477687835693,3.5742788314819336
1684594532621242000,12.5792421875,7.921439170837402,-6.742974281311035,3.497110366821289
1684594532638115000,12.596114990234375,8.127222061157227,-6.887141704559326,3.449253797531128
1684594532654987300,12.6129873046875,7.673183917999268,-6.660421848297119,3.181257724761963
1684594532671860200,12.629860107421875,7.223333358764648,-6.327819347381592,2.851048231124878
1684594532688733400,12.6467333984375,7.012764930725098,-6.1399827003479,2.5836503505706787
1684594532705606100,12.663606201171875,7.10847806930542,-6.178267955780029,2.3150558471679688
1684594532722478600,12.680478515625,7.409973621368408,-6.393621921539307,2.104487419128418
1684594532739351800,12.697351806640626,7.3052873611450195,-6.49770975112915,1.8460626602172852
1684594532756224300,12.714224365234376,6.622735023498535,-6.303293228149414,1.5014961957931519
1684594532773086700,12.731086669921876,5.715256690979004,-5.955735683441162,1.2047861814498901
1684594532789970000,12.747969970703124,5.074578762054443,-5.584847927093506,0.9846464991569519
1684594532806843000,12.7648427734375,4.83051061630249,-5.431109428405762,0.8315058946609497
1684594532823715300,12.78171533203125,5.193621635437012,-5.5034918785095215,0.6640082597732544
1684594532840588800,12.7985888671875,5.804389476776123,-5.5142598152160645,0.4582255482673645
1684594532857460500,12.81546044921875,5.697908878326416,-5.18823766708374,0.21954147517681122
1684594532874334200,12.832334228515625,4.994419097900391,-4.593023300170898,0.04247260093688965
1684594532891207000,12.84920703125,4.171886444091797,-4.131806373596191,0.1339980661869049
1684594532908079900,12.866079833984376,3.809373617172241,-4.155136585235596,0.5210371017456055
1684594532924940000,12.88293994140625,4.369294166564941,-4.564907550811768,1.052243709564209
1684594532941813800,12.899813720703126,4.980062007904053,-4.72582483291626,1.4877375364303589
1684594532958700300,12.9167001953125,4.9980082511901855,-4.459024906158447,1.7611174583435059
1684594532975571200,12.9335712890625,4.8436713218688965,-4.100101470947266,1.8526428937911987
1684594532992443600,12.950443603515625,4.800600528717041,-4.009174346923828,1.8861424922943115
1684594533009316400,12.96731640625,4.987240791320801,-4.23948335647583,1.8855443000793457
1684594533026189300,12.984189208984375,5.523830890655518,-4.728217601776123,1.7324036359786987
1684594533043062300,13.001062255859376,6.251847267150879,-5.4658050537109375,1.5355939865112305
1684594533059934700,13.017934814453126,6.908677101135254,-6.174678802490234,1.32921302318573
1684594533076807400,13.034807373046876,6.857829570770264,-6.532405853271484,1.0606186389923096
1684594533093680600,13.0516806640625,6.162116527557373,-6.759125709533691,0.849452018737793
1684594533110553600,13.0685537109375,6.274579048156738,-7.438687324523926,0.9206385016441345
1684594533127409400,13.085409423828125,7.288537979125977,-8.14516830444336,1.2604193687438965
1684594533144298800,13.102298828125,7.616952896118164,-7.917850017547607,1.6193426847457886
1684594533161171700,13.119171630859375,7.694121360778809,-7.024729251861572,1.9316060543060303
1684594533178044700,13.136044677734375,8.002197265625,-6.629913330078125,2.2815563678741455
1684594533194916900,13.152916748046875,8.349754333496094,-6.512664794921875,2.641077995300293
1684594533211790000,13.1697900390625,8.38265609741211,-6.4325056076049805,3.009572744369507
1684594533228662500,13.18666259765625,8.177471160888672,-6.44686222076416,3.3445677757263184
1684594533245535700,13.20353564453125,8.350353240966797,-6.682555675506592,3.6699917316436768
1684594533262408200,13.220408203125,8.665607452392578,-6.880561351776123,3.899702787399292
1684594533279281200,13.23728125,8.446065902709961,-6.81296443939209,4.0145583152771
1684594533296153900,13.25415380859375,7.872386455535889,-6.448058605194092,4.033700942993164
1684594533313027000,13.271027099609375,7.671389579772949,-6.380461692810059,4.1389851570129395
1684594533329899500,13.2878994140625,8.188239097595215,-6.698108673095703,4.354339122772217
1684594533346772500,13.3047724609375,8.671588897705078,-7.106683254241943,4.511667251586914
1684594533363645200,13.321645263671876,9.245866775512695,-7.667799949645996,4.602594375610352
1684594533380518700,13.3385185546875,9.209376335144043,-8.064410209655762,4.511068820953369
1684594533397391600,13.3553916015625,9.248857498168945,-8.365307807922363,4.386044025421143
1684594533414262800,13.3722626953125,8.924630165100098,-8.401798248291016,4.213760852813721
1684594533431136500,13.389136474609375,8.274380683898926,-7.950153350830078,4.094119548797607
1684594533448009500,13.406009521484375,8.161917686462402,-7.290332317352295,4.095315933227539
1684594533464881700,13.422881591796875,8.670392990112305,-6.823731899261475,4.129413604736328
1684594533481744400,13.439744384765625,9.084351539611816,-6.576074600219727,4.067798614501953
1684594533498627600,13.456627685546875,9.145966529846191,-6.422934055328369,3.7806596755981445
1684594533515500500,13.47350048828125,8.930612564086914,-6.267998695373535,3.4169507026672363
1684594533532373000,13.490373046875,8.510671615600586,-6.2566328048706055,3.1585259437561035
1684594533549246200,13.50724609375,8.177471160888672,-6.398407936096191,2.9904301166534424
1684594533566118700,13.52411865234375,8.050053596496582,-6.7417778968811035,2.884547710418701
1684594533582992000,13.540991943359375,8.046463966369629,-7.018746852874756,2.774477958679199
1684594533599864600,13.557864501953125,7.859824180603027,-6.835696220397949,2.5256242752075195
1684594533616737500,13.574737548828125,7.643273830413818,-6.356533527374268,2.1960129737854004
1684594533633610000,13.59160986328125,7.4464640617370605,-6.015556335449219,1.9280169010162354
1684594533650483200,13.608483154296875,7.1024956703186035,-5.856433391571045,1.7365909814834595
1684594533667355100,13.625355224609375,6.845267295837402,-5.955735683441162,1.6791633367538452
1684594533684228600,13.642228515625,6.7896342277526855,-6.2566328048706055,1.7072789669036865
1684594533701101300,13.659101318359374,6.80877685546875,-6.333203315734863,1.6067804098129272
1684594533717974300,13.675974365234374,6.526423931121826,-6.025725841522217,1.3722838163375854
1684594533734846700,13.6928466796875,6.119045734405518,-5.55015230178833,1.090528964996338
1684594533751720000,13.709719970703125,5.759523868560791,-5.161318302154541,0.8368897438049316
1684594533768592600,13.726592529296875,5.267200946807861,-4.90109920501709,0.6454638838768005
1684594533785465600,13.743465576171875,4.756333351135254,-4.770092010498047,0.5066801905632019
1684594533802337800,13.760337890625,4.340580463409424,-4.6061835289001465,0.46360939741134644
1684594533819200300,13.7772001953125,4.297509670257568,-4.530211448669434,0.5832505226135254
1684594533836083700,13.794083740234376,4.316053867340088,-4.411168575286865,0.8368897438049316
1684594533852957000,13.81095703125,4.433900356292725,-4.077968120574951,1.129412293434143
1684594533869829400,13.827829345703124,4.599005222320557,-3.696911096572876,1.4362918138504028
1684594533886702300,13.844702392578125,4.774279594421387,-3.425325632095337,1.714457392692566
1684594533903575000,13.861574951171875,5.098506927490234,-3.4366915225982666,1.9920248985290527
1684594533920447700,13.87844775390625,5.68175745010376,-3.817150354385376,2.2265214920043945
1684594533937320400,13.895320556640625,6.33798885345459,-4.421338081359863,2.3599212169647217
1684594533954193700,13.912193603515625,6.683752059936523,-5.02432918548584,2.2157537937164307
1684594533971066400,13.92906640625,6.547360897064209,-5.424529075622559,1.851446509361267
1684594533987939300,13.945939208984376,6.239284992218018,-5.8097734451293945,1.4536397457122803
1684594534004811500,13.9628115234375,6.198606967926025,-6.358327865600586,1.1467602252960205
1684594534021679000,13.97967919921875,6.68853759765625,-7.138986587524414,0.973878800868988
1684594534038557400,13.996557373046874,7.3022966384887695,-7.881359577178955,0.9589236974716187
1684594534055556000,14.01355615234375,7.215556621551514,-7.680960655212402,1.0498509407043457
1684594534072302800,14.030302734375,6.939185619354248,-6.719644069671631,1.3142578601837158
1684594534089176000,14.047176025390625,7.64447021484375,-6.560521602630615,1.7312071323394775
1684594534106048800,14.064048828125,8.489136695861816,-6.713063716888428,2.210369825363159
1684594534122921700,14.080921630859375,8.712865829467773,-6.585646152496338,2.5884358882904053
1684594534139794200,14.097794189453126,8.401798248291016,-6.336792469024658,2.8277182579040527
1684594534156667100,14.114667236328126,8.397610664367676,-6.585646152496338,3.0478577613830566
1684594534173539800,14.131539794921874,8.906085968017578,-7.2711896896362305,3.2865419387817383
1684594534190413000,14.1484130859375,9.314062118530273,-7.9280195236206055,3.4582269191741943
1684594534207285500,14.165285400390625,9.435498237609863,-8.425726890563965,3.610769271850586
1684594534224158500,14.182158447265625,9.403194427490234,-8.737391471862793,3.845266103744507
1684594534241031200,14.19903125,9.522835731506348,-8.843274116516113,4.151547431945801
1684594534257904000,14.215904052734375,9.718449592590332,-8.801998138427734,4.409972190856934
1684594534274776600,14.232776611328125,9.765109062194824,-8.634500503540039,4.4482574462890625
1684594534291649800,14.24964990234375,9.850054740905762,-8.314460754394531,4.31007194519043
1684594534308522500,14.2665224609375,9.122037887573242,-7.5565338134765625,4.1383867263793945
1684594534325395500,14.2833955078125,8.518448829650879,-7.043273448944092,4.1383867263793945
1684594534342268000,14.300267822265624,8.48435115814209,-6.818347930908203,4.244269371032715
1684594534359140900,14.317140869140625,8.492725372314453,-6.608377933502197,4.36391019821167
1684594534376013600,14.334013671875,8.38684368133545,-6.26859712600708,4.264009952545166
1684594534392886800,14.35088671875,8.214560508728027,-6.2105712890625,4.2592244148254395
1684594534409759200,14.36775927734375,8.286344528198242,-6.276971817016602,3.972085475921631
1684594534426632200,14.384632080078125,8.205587387084961,-6.342774391174316,3.5407793521881104
1684594534443505000,14.4015048828125,7.848458290100098,-6.401997089385986,3.04307222366333
1684594534460378000,14.418378173828126,7.352545738220215,-6.390032768249512,2.5399811267852783
1684594534477253600,14.435253662109375,7.057032108306885,-6.430710792541504,2.1714866161346436
1684594534494120000,14.452119873046875,6.943373203277588,-6.664011001586914,1.9794625043869019
1684594534510995700,14.46899560546875,6.964310169219971,-6.974479675292969,1.8167506456375122
1684594534527869400,14.485869384765625,6.864409923553467,-7.09292459487915,1.557727575302124
1684594534544741400,14.502741455078125,6.386443614959717,-6.736992359161377,1.1850453615188599
1684594534561614300,14.5196142578125,5.614160060882568,-5.787041664123535,0.7836494445800781
1684594534578487600,14.536487548828125,4.7988057136535645,-4.593621253967285,0.511465847492218
1684594534595360500,14.553360595703126,4.055236339569092,-3.6299118995666504,0.373878538608551
1684594534612232400,14.570232421875,3.418745279312134,-3.1070802211761475,0.4217349886894226
1684594534629106000,14.58710595703125,3.352344512939453,-3.1692936420440674,0.5461617708206177
1684594534645979000,14.603978759765624,4.442873477935791,-3.9332022666931152,0.7896314859390259
1684594534662851600,14.6208515625,5.30847692489624,-4.5583271980285645,1.0145567655563354
1684594534679724300,14.637724365234375,5.0117669105529785,-4.284946918487549,1.1150553226470947
1684594534696597000,14.654596923828125,4.374678134918213,-3.6807594299316406,1.1395817995071411
1684594534713469700,14.6714697265625,4.283750534057617,-3.613760471343994,1.2592228651046753
1684594534730343200,14.68834326171875,4.657629489898682,-3.9792640209198,1.4745769500732422
1684594534747215400,14.70521533203125,5.236093997955322,-4.378267288208008,1.6701902151107788
1684594534764088300,14.72208837890625,5.609374523162842,-4.724030017852783,1.8041882514953613
1684594534780961300,14.738961181640626,5.726024627685547,-5.134997367858887,1.8370895385742188
1684594534797834200,14.755834228515624,5.914459228515625,-5.718846321105957,1.7599210739135742
1684594534814706400,14.77270654296875,6.3702921867370605,-6.417550563812256,1.6301103830337524
1684594534831579600,14.78957958984375,7.180262565612793,-7.266404151916504,1.5290136337280273
1684594534848452900,14.806452880859375,7.9280195236206055,-8.104490280151367,1.4374881982803345
1684594534865325600,14.82332568359375,7.933403491973877,-8.34855842590332,1.41834557056427
1684594534882197800,14.84019775390625,6.786045074462891,-7.700103282928467,1.6528422832489014
1684594534899071000,14.857071044921875,6.703492641448975,-7.381259441375732,2.170290231704712
1684594534915943700,14.873943603515626,7.714460372924805,-7.375875949859619,2.7355945110321045
1684594534932817000,14.89081689453125,8.46760082244873,-7.274778842926025,3.181257724761963
1684594534949679600,14.9076796875,8.614161491394043,-6.964908599853516,3.4540395736694336
1684594534966562300,14.924562255859374,8.264211654663086,-6.5389862060546875,3.57906436920166
1684594534983434800,14.941434814453125,7.971688747406006,-6.246463298797607,3.6939198970794678
1684594535000308000,14.958307861328125,7.92861795425415,-6.290132522583008,3.9427735805511475
1684594535017177000,14.975177001953124,8.197810173034668,-6.741179466247559,4.229912281036377
1684594535034056700,14.992056640625,8.47178840637207,-7.3639116287231445,4.526023864746094
1684594535050925800,15.00892578125,8.883952140808105,-7.762316703796387,4.625924587249756
1684594535067799300,15.02579931640625,7.963313579559326,-7.797610759735107,4.462614059448242
1684594535084671500,15.04267138671875,7.834699630737305,-7.786843299865723,4.347758769989014
1684594535101542000,15.0595419921875,8.316853523254395,-7.8077802658081055,4.467998027801514
1684594535118420200,15.076420166015625,8.672785758972168,-7.455437183380127,4.559523582458496
1684594535135290600,15.09329052734375,9.149555206298828,-7.405188083648682,4.669593334197998
1684594535152162800,15.110162841796875,9.613164901733398,-7.612166881561279,4.707878589630127
1684594535169036000,15.1270361328125,9.393623352050781,-7.606184959411621,4.478167533874512
1684594535185908700,15.14390869140625,8.9312105178833,-7.5463643074035645,4.171886444091797
1684594535202781400,15.160781494140625,8.47298526763916,-7.487142086029053,3.9224345684051514
1684594535219654100,15.177654052734376,8.420342445373535,-7.443472862243652,3.8123645782470703
1684594535236527000,15.194527099609376,8.276175498962402,-7.227520942687988,3.6741790771484375
1684594535253400000,15.211400146484374,7.99800968170166,-6.853044033050537,3.497110366821289
1684594535270273300,15.228273193359374,7.863413333892822,-6.608976364135742,3.3822548389434814
1684594535287145500,15.2451455078125,8.035696983337402,-6.652047157287598,3.373281717300415
1684594535304008000,15.262008056640624,8.041080474853516,-6.790830612182617,3.3439695835113525
1684594535320891100,15.27889111328125,7.802396297454834,-6.7896342277526855,3.2243285179138184
1684594535337764600,15.2957646484375,7.324429988861084,-6.591628074645996,3.0520453453063965
1684594535354636500,15.312636474609375,6.879963397979736,-6.269793510437012,2.86061954498291
1684594535371509800,15.329509765625,6.6454668045043945,-6.096313953399658,2.7314071655273438
1684594535388382500,15.346382568359376,6.760322093963623,-6.196812629699707,2.583052158355713
1684594535405255200,15.363255126953124,6.961917400360107,-6.540780544281006,2.3533411026000977
1684594535422127900,15.3801279296875,6.872784614562988,-6.7932233810424805,1.9698911905288696
1684594535438998300,15.396998291015626,6.390631198883057,-6.723233222961426,1.4482558965682983
1684594535455876400,15.41387646484375,5.649454116821289,-6.21774959564209,0.8979067206382751
1684594535472746800,15.430746826171875,4.78803825378418,-5.44426965713501,0.46779683232307434
1684594535489619200,15.447619140625,4.026522159576416,-4.724030017852783,0.18065811693668365
1684594535506492200,15.4644921875,3.5958142280578613,-4.378267288208008,0.06161518394947052
1684594535523364900,15.48136474609375,3.5479576587677,-4.378267288208008,0.10468599200248718
1684594535540238000,15.498238037109376,3.710669755935669,-4.498506546020508,0.25782662630081177
1684594535557110500,15.515110595703124,3.8626139163970947,-4.3178486824035645,0.44446679949760437
1684594535573983500,15.5319833984375,3.989433526992798,-3.817150354385376,0.6173482537269592
1684594535590856400,15.5488564453125,3.772883176803589,-3.4295129776000977,0.7902296781539917
1684594535607729400,15.5657294921875,3.810570001602173,-3.300898790359497,1.0342975854873657
1684594535624601600,15.5826015625,4.244867324829102,-3.379862070083618,1.374078392982483
1684594535641463800,15.5994638671875,4.923232555389404,-3.6987056732177734,1.7904295921325684
1684594535658347500,15.616347412109375,5.621338367462158,-4.155734539031982,2.1397817134857178
1684594535675220500,15.633220458984376,6.171687602996826,-4.573880672454834,2.268994092941284
1684594535692093000,15.650093017578126,6.206982135772705,-5.056034088134766,2.139183521270752
1684594535708966100,15.666966064453124,6.095117568969727,-5.633302688598633,1.82273268699646
1684594535725838800,15.6838388671875,6.422934055328369,-6.4941205978393555,1.563111424446106
1684594535742711800,15.7007119140625,7.071389198303223,-7.4709906578063965,1.4476577043533325
1684594535759584000,15.717583984375,7.178467750549316,-8.045268058776855,1.4662020206451416
1684594535776457200,15.734457275390625,6.982854843139648,-7.978269100189209,1.662413477897644
1684594535793330200,15.751330078125,7.215556621551514,-7.8077802658081055,1.9878374338150024
1684594535810203100,15.768203125,7.70668363571167,-7.809575080871582,2.1990039348602295
1684594535827075600,15.78507568359375,8.283951759338379,-7.797610759735107,2.313859462738037
1684594535843948500,15.801948486328126,8.531010627746582,-7.588238716125488,2.4771697521209717
1684594535860821200,15.8188212890625,8.028517723083496,-7.277172088623047,2.7834508419036865
1684594535877694500,15.835694580078124,7.832904815673828,-7.253841876983643,3.2380871772766113
1684594535894566700,15.852566650390624,8.291728973388672,-7.519444942474365,3.7884364128112793
1684594535911440000,15.86943994140625,8.959924697875977,-7.718647480010986,4.2622151374816895
1684594535928312600,15.8863125,8.835497856140137,-7.6289167404174805,4.683950424194336
1684594535945185500,15.903185546875,8.22712230682373,-6.924230575561523,4.7030930519104
1684594535962058000,15.92005810546875,7.428517818450928,-6.452844619750977,4.584050178527832
1684594535978931000,15.936930908203125,7.466803073883057,-6.46241569519043,4.512265205383301
1684594535995803400,15.953803466796876,7.75334358215332,-6.606583118438721,4.512265205383301
1684594536012676900,15.9706767578125,7.782057285308838,-6.592226505279541,4.469194412231445
1684594536029549300,15.98754931640625,7.438687324523926,-6.6149582862854,4.334598064422607
1684594536046422300,16.00442236328125,7.262216567993164,-6.652047157287598,4.210171222686768
1684594536063295000,16.021294921875,7.180262565612793,-6.379265308380127,4.133601188659668
1684594536080168200,16.038168212890625,6.992425918579102,-5.876173973083496,3.9332022666931152
1684594536097040100,16.0550400390625,6.8997039794921875,-5.42572546005249,3.7232320308685303
1684594536113901800,16.07190185546875,6.899106025695801,-5.205585479736328,3.5994033813476562
1684594536130780400,16.088780517578126,7.286144733428955,-5.407779216766357,3.603590965270996
1684594536147658200,16.105658203125,7.95134973526001,-5.877968788146973,3.579662561416626
1684594536164531500,16.122531494140624,8.650053977966309,-6.534798622131348,3.492922782897949
1684594536181386800,16.13938671875,8.824729919433594,-7.218547821044922,3.2865419387817383
1684594536198277600,16.156277587890624,8.301300048828125,-7.493124008178711,2.898306369781494
1684594536215150600,16.173150634765626,7.619345664978027,-7.418946743011475,2.659024238586426
1684594536232023000,16.19002294921875,7.509275436401367,-7.438089370727539,2.8594231605529785
1684594536248896000,16.20689599609375,8.176873207092285,-7.3746795654296875,3.3098719120025635
1684594536265768700,16.223768798828125,8.666205406188965,-6.951149940490723,3.6358940601348877
1684594536282642000,16.240641845703124,8.420342445373535,-6.348756790161133,3.7328033447265625
1684594536299514000,16.25751416015625,8.194819450378418,-6.018547058105469,3.8763725757598877
1684594536316387300,16.27438720703125,8.496315002441406,-6.26859712600708,4.168296813964844
1684594536333259500,16.291259521484374,8.737391471862793,-6.872186660766602,4.359124660491943
1684594536350133200,16.30813330078125,8.486145973205566,-7.2197442054748535,4.214957237243652
1684594536367005400,16.32500537109375,7.874779224395752,-7.035496711730957,3.865604877471924
1684594536383878400,16.34187841796875,7.248457908630371,-6.640681266784668,3.5018959045410156
1684594536400751400,16.35875146484375,7.022934436798096,-6.347560405731201,3.291327476501465
1684594536417621800,16.375621826171876,7.471588611602783,-6.4115681648254395,3.4067811965942383
1684594536434499000,16.3924990234375,7.715058326721191,-6.422336101531982,3.5742788314819336
1684594536451370000,16.409369873046874,7.700103282928467,-6.32662296295166,3.555136203765869
1684594536468242400,16.426242431640624,7.6474609375,-6.187241077423096,3.2823543548583984
1684594536485119000,16.443118896484375,7.5326056480407715,-6.109474182128906,2.885145902633667
1684594536501984300,16.459984375,7.35613489151001,-6.126822471618652,2.54536509513855
1684594536518861000,16.476861083984375,7.352545738220215,-6.298507213592529,2.3772692680358887
1684594536535733800,16.493733642578125,7.300501823425293,-6.522834300994873,2.252842426300049
1684594536552606700,16.510606689453127,7.015157699584961,-6.578467845916748,2.0614166259765625
1684594536569479200,16.527479248046873,6.69990348815918,-6.5150580406188965,1.8406788110733032
1684594536586352000,16.54435205078125,6.479763507843018,-6.389434814453125,1.6157535314559937
1684594536603225000,16.56122509765625,6.298507213592529,-6.244668960571289,1.4195420742034912
1684594536620098000,16.57809814453125,6.207580089569092,-6.205785751342773,1.2765709161758423
1684594536636970200,16.59497021484375,6.198009014129639,-6.239284992218018,1.171286702156067
1684594536653843500,16.611843505859376,6.040680885314941,-6.209972858428955,1.0845468044281006
1684594536670716400,16.62871630859375,5.816353797912598,-6.1704912185668945,0.9984052777290344
1684594536687587300,16.64558740234375,5.745167255401611,-6.251249313354492,0.8835497498512268
1684594536704461600,16.662461669921875,5.577669620513916,-6.107081413269043,0.7160521745681763
1684594536721334800,16.679334716796873,5.073980331420898,-5.478965759277344,0.534795880317688
1684594536738207500,16.69620751953125,4.46979284286499,-4.625924587249756,0.44446679949760437
1684594536755080700,16.713080810546874,4.205385684967041,-4.209573268890381,0.5838487148284912
1684594536771953000,16.729952880859376,4.612165451049805,-4.4410786628723145,0.8464609980583191
1684594536788825600,16.74682568359375,5.434100151062012,-4.821537494659424,1.095314621925354
1684594536805699000,16.763698974609376,5.456831932067871,-4.573282241821289,1.1820544004440308
1684594536822571800,16.78057177734375,4.85324239730835,-4.060021877288818,1.1060823202133179
1684594536839444000,16.79744384765625,4.432703971862793,-3.833899974822998,1.0007981061935425
1684594536856317000,16.81431689453125,4.729413986206055,-4.021138668060303,0.9762716293334961
1684594536873190000,16.83118994140625,5.030909538269043,-4.318446636199951,1.0049854516983032
1684594536890063000,16.84806298828125,5.0943193435668945,-4.614558696746826,0.9954141974449158
1684594536906935600,16.864935546875,5.549553871154785,-5.132604598999023,0.9804590940475464
1684594536923808300,16.881808349609376,6.244668960571289,-5.8851470947265625,0.9607182741165161
1684594536940681500,16.898681396484374,6.675975322723389,-6.4695940017700195,0.9601200819015503
1684594536957551600,16.915551513671875,6.476174354553223,-6.579065799713135,0.9601200819015503
1684594536974429200,16.93242919921875,6.204588890075684,-6.611967086791992,1.0558329820632935
1684594536991289300,16.949289306640626,6.802196502685547,-6.991827964782715,1.31365966796875
1684594537008172500,16.966172607421875,7.34177827835083,-7.10429048538208,1.6348960399627686
1684594537025045200,16.983045166015625,7.459624767303467,-6.890730857849121,1.9794625043869019
1684594537041918000,16.99991796875,7.631309509277344,-6.863213539123535,2.3198416233062744
1684594537058791000,17.016791015625,8.008777618408203,-7.003791809082031,2.640479803085327
1684594537075663600,17.03366357421875,8.266005516052246,-6.986443996429443,2.9036903381347656
1684594537092536800,17.050536865234374,8.112266540527344,-6.7280192375183105,3.0855448246002197
1684594537109409000,17.067408935546876,8.054241180419922,-6.51326322555542,3.239283561706543
1684594537126282200,17.0842822265625,8.292924880981445,-6.619743824005127,3.4163525104522705
1684594537143152000,17.101152099609376,8.809176445007324,-6.961319446563721,3.569493293762207
1684594537160030700,17.11803076171875,9.197412490844727,-7.411767959594727,3.6263227462768555
1684594537176889600,17.1348896484375,8.61057186126709,-7.309474945068359,3.463610887527466
1684594537193773300,17.151773193359375,7.802396297454834,-6.823731899261475,3.3104701042175293
1684594537210646300,17.168646240234374,7.557730197906494,-6.502495765686035,3.3056845664978027
1684594537227519200,17.185519287109376,7.704888820648193,-6.2500529289245605,3.3828530311584473
1684594537244391400,17.202391357421874,7.985447406768799,-6.098108291625977,3.445664644241333
1684594537261264600,17.2192646484375,8.162516593933105,-6.208776473999023,3.5365917682647705
1684594537278137600,17.2361376953125,8.105687141418457,-6.318846225738525,3.655634880065918
1684594537295010600,17.253010498046876,7.818548202514648,-6.141179084777832,3.689134359359741
1684594537311882800,17.2698828125,7.82273530960083,-6.0023956298828125,3.6466617584228516
1684594537328756000,17.286755859375,8.080561637878418,-5.992824077606201,3.4408788681030273
1684594537345628700,17.303628662109375,7.999206066131592,-5.997011661529541,3.153740167617798
1684594537362501600,17.320501708984374,8.038089752197266,-6.134599208831787,2.943171739578247
1684594537379374000,17.3373740234375,8.388039588928223,-6.565905570983887,2.909074068069458
1684594537396247000,17.3542470703125,8.738588333129883,-7.035496711730957,2.9659037590026855
1684594537413120000,17.3711201171875,8.940183639526367,-7.371089935302734,3.0424740314483643
1684594537429988400,17.38798828125,8.868398666381836,-7.404589653015137,3.104687452316284
1684594537446865200,17.404865234375,8.8109712600708,-7.266404151916504,3.3104701042175293
1684594537463738000,17.421738037109375,9.177671432495117,-7.172485828399658,3.57906436920166
1684594537480611000,17.438611083984377,9.190832138061523,-6.97268533706665,3.775275945663452
1684594537497483500,17.4554833984375,8.822935104370117,-6.809374809265137,3.8949170112609863
1684594537514357000,17.47235693359375,8.579465866088867,-6.803991317749023,4.0145583152771
1684594537531229700,17.489229736328124,8.603992462158203,-6.866204738616943,4.0767717361450195
1684594537548102400,17.506102294921874,8.493324279785156,-6.717251300811768,3.9571304321289062
1684594537564975400,17.522975341796876,8.091329574584961,-6.370890140533447,3.655634880065918
1684594537581837600,17.539837646484376,7.71386194229126,-6.173482418060303,3.421138286590576
1684594537598720800,17.556720703125,7.6474609375,-6.2159552574157715,3.3780672550201416
1684594537615593500,17.573593505859375,7.514061450958252,-6.235097408294678,3.4402806758880615
1684594537632466700,17.590466796875,7.551748275756836,-6.235097408294678,3.468994617462158
1684594537649339000,17.6073388671875,7.795217990875244,-6.20219612121582,3.3445677757263184
1684594537666212000,17.624212158203125,7.861618995666504,-6.086742401123047,3.0005996227264404
1684594537683074000,17.641073974609377,7.703692436218262,-5.998806476593018,2.5645077228546143
1684594537699958000,17.6579580078125,7.575676441192627,-6.055037498474121,2.2055842876434326
1684594537716830000,17.674829833984376,7.423732280731201,-6.240481376647949,1.9615163803100586
1684594537733703400,17.691703369140626,7.167101860046387,-6.506682872772217,1.7934205532073975
1684594537750573300,17.7085732421875,6.738786697387695,-6.638886451721191,1.6396816968917847
1684594537767452000,17.725451904296875,6.333203315734863,-6.584449768066406,1.4913266897201538
1684594537784321500,17.742321533203125,6.294320106506348,-6.526423931121826,1.3142578601837158
1684594537801194500,17.759194580078123,6.50907564163208,-6.450451850891113,1.0845468044281006
1684594537818067200,17.776067138671873,6.465406894683838,-6.200999736785889,0.8123632669448853
1684594537834940200,17.792940185546875,6.010172367095947,-5.763711452484131,0.5587241053581238
1684594537851812900,17.809812744140626,5.4556355476379395,-5.4173502922058105,0.4247260093688965
1684594537868685600,17.826685546875,5.050052165985107,-5.397609710693359,0.592223584651947
1684594537885558500,17.84355859375,5.07936429977417,-5.618347644805908,0.9702895879745483
1684594537902431500,17.860431396484376,5.337191104888916,-5.644070625305176,1.2574282884597778
1684594537919304000,17.877303955078126,5.565107345581055,-5.44426965713501,1.363310694694519
1684594537936176600,17.8941767578125,5.649454116821289,-5.124229907989502,1.296311616897583
1684594537953049600,17.911049560546875,5.5244293212890625,-4.759922504425049,1.1437692642211914
1684594537969922800,17.9279228515625,5.1182475090026855,-4.648656368255615,1.0959128141403198
1684594537986795000,17.944794921875,4.751547336578369,-4.8436713218688965,1.2388839721679688
1684594538003668200,17.961668212890626,4.566103935241699,-4.987240791320801,1.4775680303573608
1684594538020541000,17.978541015625,4.6995038986206055,-4.868795871734619,1.6408780813217163
1684594538037413000,17.9954130859375,4.826921463012695,-4.591826438903809,1.6606189012527466
1684594538054287000,18.012287109375,5.054239749908447,-4.252644062042236,1.5122638940811157
1684594538071159300,18.0291591796875,5.340181827545166,-4.1383867263793945,1.3214362859725952
1684594538088032300,18.0460322265625,5.699105262756348,-4.373481750488281,1.1682956218719482
1684594538104905200,18.0629052734375,5.944369792938232,-4.895116806030273,1.062413215637207
1684594538121767000,18.079766845703126,6.15254545211792,-5.617151260375977,1.0235298871994019
1684594538138650400,18.096650390625,6.317649841308594,-6.27278470993042,1.017547845840454
1684594538155523300,18.1135234375,6.237490653991699,-6.559325218200684,0.97926265001297
1684594538172396300,18.130396240234376,6.209374904632568,-6.58265495300293,0.9218349456787109
1684594538189268500,18.1472685546875,6.615556240081787,-6.818347930908203,0.9505487680435181
1684594538206142000,18.164141845703124,7.351947784423828,-7.261020183563232,1.1318050622940063
1684594538223014100,18.18101416015625,7.624131202697754,-7.386643409729004,1.4865410327911377
1684594538239887600,18.1978876953125,7.469794273376465,-7.043871879577637,2.008176326751709
1684594538256759800,18.214759765625,7.550551891326904,-6.9068827629089355,2.5639095306396484
1684594538273633300,18.23163330078125,8.085348129272461,-7.139584541320801,3.142972469329834
1684594538290505700,18.248505615234375,9.007183074951172,-7.53559684753418,3.6885361671447754
1684594538307379000,18.26537890625,9.604191780090332,-7.691728591918945,4.061816215515137
1684594538324251100,18.282251220703124,9.077771186828613,-7.316653251647949,4.0426740646362305
1684594538341124400,18.299124267578126,7.768298625946045,-6.643074035644531,3.741776466369629
1684594538357997000,18.3159970703125,7.146164894104004,-6.195616245269775,3.57906436920166
1684594538374870000,18.3328701171875,6.992425918579102,-5.894120216369629,3.607778310775757
1684594538391742500,18.349742431640625,7.4123663902282715,-5.8959150314331055,3.78544545173645
1684594538408615400,18.366615478515627,8.377870559692383,-6.401997089385986,4.057629108428955
1684594538425488100,18.383488037109377,9.100502967834473,-6.973283290863037,4.17726993560791
1684594538442361300,18.400361328125,8.796015739440918,-7.196413993835449,3.9038901329040527
1684594538459233500,18.417233642578125,7.837092399597168,-7.11565637588501,3.4540395736694336
1684594538476119600,18.43411962890625,7.264011383056641,-6.883552551269531,3.0993034839630127
1684594538492979500,18.4509794921875,7.029514789581299,-6.690930366516113,2.9419753551483154
1684594538509852700,18.467852783203124,7.271788120269775,-6.505486488342285,2.985046148300171
1684594538526724900,18.484724853515626,9.491728782653809,-6.9960150718688965,3.3780672550201416
1684594538543597800,18.501597900390625,7.334001541137695,-6.568896293640137,3.339184045791626
1684594538560472600,18.51847265625,7.875377655029297,-5.962913990020752,3.105883836746216
1684594538577341200,18.535341064453124,8.462217330932617,-6.031707763671875,3.28773832321167
1684594538594218200,18.55221826171875,8.169694900512695,-5.710471153259277,3.226123094558716
1684594538611089000,18.5690888671875,8.209176063537598,-5.921039581298828,3.1920254230499268
1684594538627961900,18.5859619140625,8.630910873413086,-6.419344902038574,3.1680972576141357
1684594538644834800,18.602834716796874,9.79262638092041,-7.040282249450684,3.4881372451782227
1684594538661696800,18.61969677734375,8.954540252685547,-7.41117000579834,3.6598222255706787
1684594538678580500,18.63658056640625,8.181060791015625,-7.317849636077881,3.582653760910034
1684594538695452700,18.65345263671875,8.519644737243652,-7.213762283325195,3.7124643325805664
1684594538712326100,18.670326171875,8.843274116516113,-7.062416076660156,3.7944185733795166
1684594538729198000,18.687197998046877,8.85224723815918,-6.923034191131592,3.655634880065918
1684594538746071300,18.7040712890625,8.637491226196289,-6.897909641265869,3.435495138168335
1684594540399597800,20.357597900390626,7.727620601654053,-7.225128173828125,3.558725595474243
1684594540416469800,20.3744697265625,8.585447311401367,-7.10429048538208,3.779463291168213
1684594540433343000,20.391343017578127,8.612964630126953,-6.774679183959961,3.775275945663452
1684594540450215700,20.408215576171877,8.02492904663086,-6.409175395965576,3.5886356830596924
1684594540467088600,20.425088623046875,7.628318786621094,-6.230910301208496,3.593421459197998
1684594540483961000,20.441961181640625,7.437490940093994,-6.216553211212158,3.789632797241211
1684594540500834000,20.458833984375,7.533204078674316,-6.399005889892578,4.009772777557373
1684594540517706800,20.475706787109374,7.562515735626221,-6.4947190284729,3.9571304321289062
1684594540534579700,20.492579833984376,7.404589653015137,-6.330810546875,3.5742788314819336
1684594540551452000,20.509451904296874,7.417750358581543,-6.10468864440918,3.0382864475250244
1684594540568324900,20.526324951171876,7.417750358581543,-6.017350673675537,2.554936408996582
1684594540585198000,20.543197998046875,7.346563816070557,-6.111867427825928,2.210369825363159
1684594540602071000,20.560071044921877,7.362117290496826,-6.412166595458984,2.032702922821045
1684594540618943500,20.576943603515623,7.258627414703369,-6.7316083908081055,1.8652052879333496
1684594540635816400,20.59381640625,7.049853801727295,-6.907480716705322,1.6253247261047363
1684594540652689200,20.610689208984375,6.725028038024902,-6.853044033050537,1.2903295755386353
1684594540669562000,20.62756201171875,6.285346984863281,-6.534798622131348,0.9170492887496948
1684594540686434300,20.644434326171876,5.8683977127075195,-6.03110933303833,0.5778666734695435
1684594540703307500,20.6613076171875,5.54177713394165,-5.556134223937988,0.30987054109573364
1684594540720180500,20.678180419921876,5.1876397132873535,-5.258227825164795,0.13280165195465088
1684594540737053200,20.69505322265625,4.890929698944092,-5.041677474975586,0.09511470049619675
1684594540753925600,20.711925537109376,4.551746845245361,-4.840680122375488,0.267397940158844
1684594540770798800,20.728798828125,4.135395526885986,-4.5816569328308105,0.44446679949760437
1684594540787671300,20.74567138671875,3.78544545173645,-4.202992916107178,0.544965386390686
1684594540804544500,20.76254443359375,3.6269209384918213,-3.8398821353912354,0.6460621356964111
1684594540821405700,20.77940576171875,4.064807415008545,-3.655036687850952,0.9098708033561707
1684594540838290000,20.7962900390625,4.116851329803467,-3.570091485977173,1.2448660135269165
1684594540855162600,20.81316259765625,3.8638103008270264,-3.5365917682647705,1.5176477432250977
1684594540872035600,20.83003564453125,4.036093711853027,-3.6526436805725098,1.77607262134552
1684594540888908000,20.846907958984374,4.623531341552734,-3.9900317192077637,2.0919251441955566
1684594540905781000,20.863781005859376,5.3216376304626465,-4.293920040130615,2.292922258377075
1684594540922653700,20.88065380859375,5.550750255584717,-4.380660057067871,2.211566209793091
1684594540939526700,20.897526611328125,5.589633464813232,-4.503890514373779,1.8909281492233276
1684594540956398800,20.91439892578125,5.940182209014893,-5.102096080780029,1.6701902151107788
1684594540973272000,20.93127197265625,6.860820770263672,-6.270989894866943,1.6402798891067505
1684594540990145000,20.94814501953125,7.987840175628662,-7.670791149139404,1.6869399547576904
1684594541007017700,20.965017822265626,8.46341323852539,-8.422736167907715,1.662413477897644
1684594541023890200,20.98189013671875,7.491927623748779,-7.658827304840088,1.423729419708252
1684594541040763400,20.998763427734374,6.738786697387695,-6.623931407928467,1.3812568187713623
1684594541057635800,21.0156357421875,7.424928665161133,-6.531209468841553,1.7790635824203491
1684594541074508800,21.0325087890625,8.61057186126709,-7.16231632232666,2.286342144012451
1684594541091381200,21.04938134765625,9.333803176879883,-7.992625713348389,2.6638097763061523
1684594541108254200,21.066254150390623,9.57787036895752,-8.166105270385742,2.7930221557617188
1684594541125127200,21.083127197265625,8.46341323852539,-7.359126091003418,2.65423846244812
1684594541142000000,21.100000244140624,7.76470947265625,-6.878767013549805,2.678765058517456
1684594541158872600,21.11687255859375,8.423334121704102,-6.954140663146973,3.1238300800323486
1684594541175745500,21.13374560546875,8.761918067932129,-7.066603660583496,3.76570463180542
1684594541192618000,21.150617919921874,8.800203323364258,-7.154539585113525,4.435695171356201
1684594541209491500,21.167491455078125,9.29731273651123,-7.430312633514404,5.066802024841309
1684594541226363600,21.18436376953125,10.25743293762207,-7.7593255043029785,5.3832526206970215
1684594541243236900,21.20123681640625,10.292128562927246,-8.160721778869629,5.291727066040039
1684594541260109600,21.218109619140623,9.491130828857422,-8.170890808105469,4.822135925292969
1684594541276982300,21.234982177734373,8.647063255310059,-8.224729537963867,4.443471431732178
1684594541293854500,21.2518544921875,8.925827026367188,-8.660821914672852,4.390829563140869
1684594541310727700,21.268727783203126,9.266205787658691,-8.991629600524902,4.3758745193481445
1684594541327600400,21.285600341796876,8.877371788024902,-8.425128936767578,4.074976921081543
1684594541344473600,21.3024736328125,8.50588607788086,-7.347760200500488,3.70767879486084
1684594541361338600,21.319338623046875,8.340781211853027,-6.625127792358398,3.5982069969177246
1684594541378219000,21.336218994140626,8.664410591125488,-6.544968128204346,3.741776466369629
1684594541395091500,21.353091552734377,9.023334503173828,-6.818946361541748,3.861417531967163
1684594541411964700,21.369964599609375,8.508278846740723,-6.802794933319092,3.6699917316436768
1684594541428834000,21.386833984375,7.6911301612854,-6.4594244956970215,3.215355396270752
1684594541445712600,21.403712646484376,7.370491981506348,-6.1226348876953125,2.7942185401916504
1684594541462582800,21.420582763671874,7.399205684661865,-6.102894306182861,2.531008243560791
1684594541479456000,21.4374560546875,7.633702278137207,-6.351747512817383,2.3635106086730957
1684594541496328000,21.454327880859374,7.691728591918945,-6.470790863037109,2.1720848083496094
1684594541513201000,21.471200927734376,7.390830993652344,-6.4217376708984375,1.9800606966018677
1684594541530073900,21.488073974609375,6.923034191131592,-6.285944938659668,1.7359927892684937
1684594541546947000,21.504947021484377,6.416952133178711,-6.092126369476318,1.482353687286377
1684594541563819300,21.5218193359375,6.001199245452881,-5.913861274719238,1.2765709161758423
1684594541580692200,21.538692138671873,5.675775527954102,-5.7164530754089355,1.0995019674301147
1684594541597562000,21.55556201171875,5.159523963928223,-5.3940205574035645,0.9942178130149841
1684594541614440400,21.5724404296875,4.599005222320557,-4.818546772003174,0.9278169870376587
1684594541631310300,21.589310302734376,3.937987804412842,-4.113860130310059,0.914058268070221
1684594541648183300,21.606183349609374,3.387040376663208,-3.5096726417541504,0.9810572862625122
1684594541665056000,21.623055908203124,2.984447956085205,-3.059821844100952,1.0917253494262695
1684594541681928400,21.639928466796874,2.973680257797241,-2.816352367401123,1.225723385810852
1684594541698802700,21.656802734375,3.322434186935425,-2.932404041290283,1.4321043491363525
1684594541715674400,21.67367431640625,3.8673996925354004,-3.297907829284668,1.618146300315857
1684594541732547000,21.690547119140625,4.412364959716797,-3.6394832134246826,1.709073543548584
1684594541749420300,21.707420166015623,4.724030017852783,-4.003790378570557,1.7473586797714233
1684594541766292500,21.72429248046875,4.797011375427246,-4.328616142272949,1.6558332443237305
1684594541783165400,21.74116552734375,4.874777793884277,-4.66779899597168,1.526620864868164
1684594541800038400,21.758038330078126,5.30129861831665,-5.13739013671875,1.4398809671401978
1684594541816911000,21.7749111328125,5.79481840133667,-5.702694416046143,1.3627125024795532
1684594541833783800,21.79178369140625,6.236892223358154,-6.378068923950195,1.323829174041748
1684594541850656800,21.80865673828125,6.850052833557129,-7.106683254241943,1.3663017749786377
1684594541867529200,21.825529296875,7.501499176025391,-7.778468132019043,1.4715858697891235
1684594541884402400,21.84240234375,8.057231903076172,-8.387441635131836,1.6049858331680298
1684594541901275000,21.85927490234375,8.220541954040527,-8.555537223815918,1.7629120349884033
1684594541918147800,21.87614794921875,7.654639720916748,-7.823333740234375,1.9932212829589844
1684594541935020500,21.8930205078125,7.0785675048828125,-7.033702373504639,2.314457654953003
1684594541951893500,21.9098935546875,7.335197925567627,-6.897311210632324,2.7984061241149902
1684594541968765700,21.926765625,8.079963684082031,-7.039684295654297,3.339184045791626
1684594541985639000,21.943638916015626,8.843274116516113,-7.148557662963867,3.82791805267334
1684594542002511600,21.96051171875,9.378668785095215,-7.375875949859619,4.253840446472168
1684594542019384800,21.977384765625,9.89551830291748,-7.837092399597168,4.502095699310303
1684594542036256800,21.9942568359375,9.949356079101562,-8.205587387084961,4.578067779541016
1684594542053130000,22.0111298828125,9.44028377532959,-8.562715530395508,4.716253280639648
1684594542070002700,22.028002685546873,9.07418155670166,-8.777471542358398,5.032105922698975
1684594542086875600,22.044875732421875,9.323633193969727,-9.195018768310547,5.356931686401367
1684594542103748000,22.061748046875,9.414560317993164,-9.329615592956543,5.467001438140869
1684594542120620800,22.078620849609376,9.016754150390625,-8.840283393859863,5.333601474761963
1684594542137491200,22.0954912109375,8.293522834777832,-8.009973526000977,5.080560684204102
1684594542154369300,22.112369384765625,7.871190071105957,-7.401000499725342,4.807778835296631
1684594542171239000,22.129239013671874,7.764111042022705,-6.960721015930176,4.583451747894287
1684594542188112400,22.1461123046875,7.6528449058532715,-6.543771743774414,4.430909156799316
1684594542204984800,22.16298486328125,7.862216949462891,-6.3529438972473145,4.3686957359313965
1684594542221858000,22.179858154296873,7.800003528594971,-6.333801746368408,4.2586259841918945
1684594542238730200,22.196730224609375,7.246663570404053,-6.273382663726807,3.9571304321289062
1684594542255603200,22.213603271484374,7.074978351593018,-6.224329948425293,3.66520619392395
1684594542272476000,22.230475830078124,7.428517818450928,-6.344569206237793,3.507279872894287
1684594542289349000,22.24734912109375,7.843672752380371,-6.45523738861084,3.253640651702881
1684594542306221300,22.26422119140625,8.034500122070312,-6.368497371673584,2.8085756301879883
1684594542323094500,22.281094482421874,7.613961696624756,-6.09332275390625,2.2438695430755615
1684594542339967200,22.29796728515625,6.987640380859375,-5.831906795501709,1.7653049230575562
1684594542356840200,22.314840087890627,6.606583118438721,-5.84446907043457,1.4733805656433105
1684594542373712100,22.331712158203125,6.354738712310791,-6.158527374267578,1.3435698747634888
1684594542390585300,22.34858544921875,6.036493301391602,-6.477969169616699,1.2855439186096191
1684594542407463700,22.365463623046875,5.6309099197387695,-6.413960933685303,1.1084750890731812
1684594542424331300,22.382331298828124,5.280361175537109,-5.828916072845459,0.8171489238739014
1684594542441203500,22.399203369140626,4.933402061462402,-4.971687316894531,0.511465847492218
1684594542458076700,22.41607666015625,4.5924248695373535,-4.281357765197754,0.28235307335853577
1684594542474947600,22.432947509765626,4.189234256744385,-3.759124279022217,0.17766708135604858
1684594542491813400,22.4498134765625,3.844667673110962,-3.4618160724639893,0.3690928816795349
1684594542508713000,22.466712890625,3.8739798069000244,-3.6400814056396484,0.8859425783157349
1684594542525566200,22.483566162109376,4.079164505004883,-3.78544545173645,1.3645070791244507
1684594542542440400,22.5004404296875,4.222135543823242,-3.7292141914367676,1.6660027503967285
1684594542559313400,22.5173134765625,4.445864677429199,-3.6155550479888916,1.8335003852844238
1684594542576185300,22.534185302734375,4.722833633422852,-3.6741790771484375,1.9680966138839722
1684594542593058600,22.55105859375,5.163113117218018,-4.101297855377197,2.02492618560791
1684594542609931300,22.56793115234375,5.9676995277404785,-4.8777689933776855,1.94297194480896
1684594542626804000,22.584803955078126,6.586244106292725,-5.6446685791015625,1.7796618938446045
1684594542643676700,22.6016767578125,6.841678142547607,-6.251847267150879,1.573280930519104
1684594542660549600,22.618549560546874,6.887141704559326,-6.844070911407471,1.347757339477539
1684594542677422600,22.635422607421877,6.960721015930176,-7.307680130004883,1.2179467678070068
1684594542694295300,22.65229541015625,6.970890522003174,-7.3986077308654785,1.3184453248977661
1684594542711167700,22.669167724609373,7.237690448760986,-7.357929706573486,1.8305093050003052
1684594542728042000,22.6860419921875,8.091927528381348,-7.52004337310791,2.5010979175567627
1684594542744912000,22.702911865234373,8.850452423095703,-7.6528449058532715,3.0418758392333984
1684594542761775600,22.719775634765625,9.160323143005371,-7.64028263092041,3.3296127319335938
1684594542778658800,22.736658935546874,8.629714965820312,-7.328019142150879,3.3104701042175293
1684594542795531800,22.75353173828125,7.8077802658081055,-6.990631580352783,3.3966116905212402
1684594542812404500,22.770404541015626,7.597211837768555,-6.890730857849121,3.6646077632904053
1684594542829277700,22.787277587890625,8.075178146362305,-7.122236728668213,3.999603033065796
1684594542846150000,22.80414990234375,8.218149185180664,-7.085147857666016,4.195814609527588
1684594542863022800,22.82102294921875,7.911269664764404,-6.658627033233643,4.220340728759766
1684594542879895600,22.8378955078125,7.686344623565674,-6.452844619750977,4.23948335647583
1684594542896768500,22.8547685546875,8.097909927368164,-6.788437843322754,4.292125701904297
1684594542913640700,22.871640625,8.778069496154785,-7.5080790519714355,4.377668857574463
1684594542930514000,22.888513916015626,9.167501449584961,-8.254639625549316,4.377070903778076
1684594542947386600,22.90538671875,9.340981483459473,-8.74756145477295,4.208974838256836
1684594542964259600,22.922259521484374,9.055039405822754,-8.760123252868652,3.964907169342041
1684594542981132000,22.939132080078124,8.313861846923828,-8.327022552490234,3.8261234760284424
1684594542998005000,22.9560048828125,8.173882484436035,-7.882555961608887,3.9559340476989746
1684594543014877400,22.97287744140625,8.605786323547363,-7.454240798950195,4.143172264099121
1684594543031750700,22.989750732421875,8.556135177612305,-6.8518476486206055,4.119842529296875
1684594543048623000,23.006623046875,8.204988479614258,-6.204588890075684,3.9290146827697754
1684594543065496000,23.02349609375,7.812565803527832,-5.8061842918396,3.737588882446289
1684594543082368800,23.04036865234375,7.837092399597168,-6.021538257598877,3.7471601963043213
1684594543099241700,23.05724169921875,7.9728851318359375,-6.605985164642334,3.961916208267212
1684594543116114000,23.074114013671874,7.573283672332764,-6.887141704559326,4.124029636383057
1684594543132987100,23.090987060546876,6.918846607208252,-6.664609432220459,4.028316974639893
1684594543149859600,23.107859619140626,6.74656343460083,-6.400800704956055,3.851248025894165
1684594543166732500,23.124732666015625,7.165905475616455,-6.358327865600586,3.607778310775757
1684594543183605000,23.14160498046875,7.52423095703125,-6.425326824188232,3.2057840824127197
1684594543200467200,23.15846728515625,7.557730197906494,-6.500700950622559,2.703291416168213
1684594543217351000,23.175350830078123,7.118647575378418,-6.369095802307129,2.1954147815704346
1684594543234223400,23.192223388671874,6.4695940017700195,-6.165107727050781,1.7790635824203491
1684594543251095800,23.209095703125,6.044867992401123,-6.120242118835449,1.511067509651184
1684594543267969000,23.225968994140626,5.983253002166748,-6.272186279296875,1.3621143102645874
1684594543284841700,23.242841796875,6.036493301391602,-6.343971252441406,1.2041879892349243
1684594543301704200,23.2597041015625,5.825924873352051,-6.175277233123779,0.9936196208000183
1684594543318587100,23.276587158203125,5.299503803253174,-5.776273727416992,0.7692924737930298
1684594543335460000,23.293460205078127,4.729413986206055,-5.224130153656006,0.5635097622871399
1684594543352333000,23.3103330078125,4.183850288391113,-4.70608377456665,0.47796630859375
1684594543369205800,23.327205810546875,3.824328899383545,-4.3657050132751465,0.5497509837150574
1684594543386078000,23.344077880859373,3.8572301864624023,-4.223331928253174,0.8039883971214294
1684594543402951200,23.360951171875,4.219144344329834,-4.091128349304199,1.191625714302063
1684594543419823600,23.37782373046875,4.141377925872803,-3.857828378677368,1.532004714012146
