time,seconds_elapsed,z,y,x
1684594520169202700,0.12720263671875,1.2394455671310425,-2.3603832721710205,2.417499303817749
1684594520186076700,0.14407666015625,1.3663527965545654,-1.8409950733184814,2.3040308952331543
1684594520202955000,0.160955078125,1.606881022453308,-1.2027937173843384,2.0062341690063477
1684594520219825400,0.177825439453125,1.7064520120620728,-0.5601634383201599,1.6224581003189087
1684594520236697000,0.194697021484375,1.6401731967926025,-0.2577851414680481,1.0948232412338257
1684594520253569800,0.21156982421875,1.5447255373001099,-0.7812966704368591,0.7870998978614807
1684594520270442800,0.22844287109375,1.6777414083480835,-1.8014415502548218,0.8413141369819641
1684594520287315700,0.245315673828125,1.9419406652450562,-1.9758436679840088,1.2148582935333252
1684594520304187600,0.262187744140625,2.052507162094116,-1.923767328262329,1.6499470472335815
1684594520321060600,0.279060546875,2.0248656272888184,-2.7769935131073,1.9856175184249878
1684594520337933000,0.29593310546875,1.5954272747039795,-3.8197402954101562,2.0926716327667236
1684594520354805800,0.3128056640625,0.5013676285743713,-1.427744746208191,1.1665998697280884
1684594520371677700,0.329677734375,0.08475755155086517,-0.764955997467041,0.5508477091789246
1684594520388544300,0.346544189453125,0.6444628238677979,-0.8503243923187256,0.21609358489513397
1684594520405423400,0.36342333984375,1.0491610765457153,-1.1023063659667969,0.3880521357059479
1684594520422285600,0.38028564453125,0.8469646573066711,-1.268614411354065,0.6661485433578491
1684594520439166000,0.397166015625,0.5094616413116455,-0.745408296585083,0.6159048676490784
1684594520456043800,0.414043701171875,0.42042800784111023,0.2961169183254242,0.39187005162239075
1684594520472913700,0.43091357421875,0.6148358583450317,1.4355332851409912,0.04184427112340927
1684594520489786400,0.447786376953125,0.8891143798828125,1.2791517972946167,-1.0086911916732788
1684594520506656300,0.46465625,0.598953366279602,0.08399397134780884,-2.676964282989502
1684594520523534000,0.4815341796875,-0.28756481409072876,0.4746423065662384,-4.153578281402588
1684594520540404200,0.498404296875,-0.9757044911384583,1.977676272392273,-4.8026227951049805
1684594520557277000,0.51527685546875,-1.6972891092300415,2.3186917304992676,-3.1706960201263428
1684594520574149000,0.532149169921875,-2.503783941268921,4.092033386230469,-0.18035796284675598
1684594520591021800,0.549021728515625,-2.5450172424316406,4.865388870239258,1.9758436679840088
1684594520607894500,0.56589453125,-2.222480535507202,4.093560695648193,3.1286990642547607
1684594520624767500,0.582767578125,-1.4007140398025513,3.0216448307037354,3.0169107913970947
1684594520641630200,0.599630126953125,0.3856086730957031,2.9880473613739014,0.8119926452636719
1684594520658512600,0.6165126953125,0.6294966340065002,0.48197266459465027,-0.1082758679986
1684594520675387400,0.633387451171875,0.030237829312682152,-0.5082398653030396,-0.6020076870918274
1684594520692257800,0.6502578125,0.16462817788124084,0.5734497308731079,-1.3619240522384644
1684594520709129700,0.667129638671875,0.8541423082351685,1.0708467960357666,-0.7162395119667053
1684594520726002400,0.68400244140625,0.8202393054962158,2.1986567974090576,0.2828305959701538
1684594520742866000,0.700865966796875,0.5149593949317932,3.9594757556915283,0.7203628420829773
1684594520759748400,0.717748291015625,0.5245805382728577,4.395328044891357,0.9703594446182251
1684594520776620300,0.734620361328125,0.39187005162239075,2.119091510772705,0.12049316614866257
1684594520793490400,0.751490478515625,0.11988230794668198,0.5123631954193115,-0.6114761233329773
1684594520810368300,0.7683681640625,-0.3741549551486969,0.11713340878486633,-0.4329507350921631
1684594520827235800,0.78523583984375,-0.28817567229270935,0.37537670135498047,-0.3543018400669098
1684594520844113200,0.802113037109375,-0.29245173931121826,0.8046622276306152,-0.8926268219947815
1684594520860983800,0.81898388671875,-0.6094908118247986,0.6782131195068359,-1.2785409688949585
1684594520877856300,0.835856201171875,-0.7261660695075989,0.6235406994819641,-1.0028879642486572
1684594520894729200,0.852729248046875,-0.5221370458602905,0.6356052756309509,-0.5340489149093628
1684594520911601200,0.86960107421875,-0.4642575979232788,0.32391130924224854,-0.5047274231910706
1684594520928474000,0.88647412109375,-0.6041457056999207,-0.30283644795417786,-0.7724391222000122
1684594520945346300,0.90334619140625,-0.6731734871864319,-0.4915938079357147,-0.8805622458457947
1684594520962219300,0.92021923828125,-0.4602869749069214,-0.2557998299598694,-0.5852088928222656
1684594520979091700,0.937091796875,-0.152105450630188,-0.09498954564332962,-0.07238753139972687
1684594520995971000,0.95397119140625,-0.07696902006864548,-0.1437060534954071,0.20555615425109863
1684594521012826400,0.970826416015625,-0.19685132801532745,-0.32162055373191833,0.1875356286764145
1684594521029709600,0.98770947265625,-0.34086281061172485,-0.4231768846511841,0.0555887371301651
1684594521046582000,1.00458203125,-0.2919935882091522,-0.2915354371070862,0.0003054326225537807
1684594521063459800,1.0214599609375,-0.22663100063800812,-0.2646573781967163,-0.0630718395113945
1684594521080327200,1.0383271484375,-0.2840523421764374,-0.3061962127685547,-0.09498954564332962
1684594521097200000,1.0552001953125,-0.3494149148464203,-0.29856038093566895,0.09498954564332962
1684594521114074000,1.07207421875,-0.3747658133506775,0.10659598559141159,0.4830417037010193
1684594521130943700,1.08894384765625,-0.12751811742782593,0.5600107312202454,0.8266534209251404
1684594521147815400,1.1058154296875,0.1840231567621231,0.5555819272994995,0.894001305103302
1684594521164693200,1.122693359375,0.26969701051712036,0.3813326358795166,0.5755877494812012
1684594521181553200,1.13955322265625,0.21639901399612427,0.13301590085029602,0.11942415684461594
1684594521198435300,1.156435302734375,0.15745051205158234,0.020922135561704636,-0.08139779418706894
1684594521215308300,1.173308349609375,0.2002110779285431,0.13515393435955048,0.05619960278272629
1684594521232179200,1.19017919921875,0.2021963894367218,0.4317290186882019,0.3199406862258911
1684594521249055000,1.207054931640625,0.24846944212913513,0.6914994716644287,0.5656611919403076
1684594521265926000,1.22392578125,0.35414913296699524,0.7347181439399719,0.6985244154930115
1684594521282798600,1.240798583984375,0.29825496673583984,0.5342016816139221,0.7573201656341553
1684594521299671300,1.25767138671875,0.049785517156124115,0.40424007177352905,0.7672467231750488
1684594521316543200,1.274543212890625,-0.25244006514549255,0.31810808181762695,0.7044803500175476
1684594521333416400,1.29141650390625,-0.4346306324005127,0.19853121042251587,0.502436637878418
1684594521350288600,1.30828857421875,-0.3985895812511444,0.17730364203453064,0.18249599635601044
1684594521367161900,1.325161865234375,-0.26053401827812195,-0.16523905098438263,-0.24068090319633484
1684594521384021200,1.342021240234375,-0.2528982162475586,-0.14508049190044403,-0.6392704844474792
1684594521400906800,1.35890673828125,-0.6676757335662842,0.8014551997184753,-0.6918048858642578
1684594521417776600,1.375776611328125,-1.048092007637024,1.4204144477844238,-0.2816088795661926
1684594521434654200,1.392654296875,-1.07771897315979,1.9996674060821533,0.1290452778339386
1684594521451524600,1.409524658203125,-1.2357803583145142,2.6988027095794678,0.5306891798973083
1684594521468394800,1.426394775390625,-1.5546520948410034,2.832887649536133,0.9692904353141785
1684594521485272300,1.443272216796875,-1.799456238746643,2.674826145172119,0.831234872341156
1684594521502142700,1.460142822265625,-2.085646629333496,2.183537721633911,0.2064724564552307
1684594521519014700,1.4770146484375,-2.2881484031677246,1.6336064338684082,-0.6348416805267334
1684594521535887400,1.493887451171875,-2.182774305343628,1.6221526861190796,-1.0183123350143433
1684594521552764200,1.51076416015625,-1.9911152124404907,2.0369300842285156,-0.9416487812995911
1684594521569633300,1.52763330078125,-1.964084506034851,2.4026856422424316,-0.9370672702789307
1684594521586505500,1.54450537109375,-2.0106630325317383,2.352900266647339,-1.189354658126831
1684594521603378200,1.561378173828125,-2.062739133834839,2.1592559814453125,-1.5274685621261597
1684594521620251000,1.5782509765625,-2.2032382488250732,2.1111502647399902,-1.7049249410629272
1684594521637123800,1.595123779296875,-2.358856201171875,2.261575937271118,-1.7168368101119995
1684594521653995300,1.611995361328125,-2.571589946746826,2.5413520336151123,-1.8741345405578613
1684594521670857700,1.628857666015625,-2.8606820106506348,2.9521589279174805,-2.026392698287964
1684594521687741200,1.6457412109375,-3.1444287300109863,3.6033413410186768,-1.7383698225021362
1684594521704602000,1.66260205078125,-3.399770498275757,4.282928943634033,-1.0910053253173828
1684594521721490000,1.679489990234375,-3.500563383102417,4.336074352264404,-0.44196099042892456
1684594521738356000,1.69635595703125,-3.597843647003174,3.6577084064483643,-0.22159136831760406
1684594521755232500,1.713232421875,-3.69848370552063,2.970637798309326,-0.3930917978286743
1684594521772103400,1.730103515625,-3.8429532051086426,2.9246699810028076,-0.5335907936096191
1684594521788976000,1.74697607421875,-3.9513819217681885,3.5501961708068848,-0.24648413062095642
1684594521805849000,1.76384912109375,-3.9845213890075684,4.360508918762207,0.35414913296699524
1684594521822722000,1.78072216796875,-4.114482879638672,3.9790234565734863,0.7542658448219299
1684594521839586800,1.7975869140625,-4.156632423400879,2.448347806930542,0.6574437022209167
1684594521856467000,1.814467041015625,-3.9464948177337646,1.3859004974365234,0.47280970215797424
1684594521873337000,1.831337158203125,-3.612351655960083,1.4072808027267456,0.6090326309204102
1684594521890215000,1.84821484375,-3.2814154624938965,2.322051525115967,1.2968668937683105
1684594521907082200,1.865082275390625,-3.0856330394744873,2.9298624992370605,2.2658519744873047
1684594521923957200,1.881957275390625,-3.0211868286132812,2.618932008743286,3.0184378623962402
1684594521940830200,1.898830322265625,-2.8518242835998535,1.5734361410140991,3.218343496322632
1684594521957703000,1.915702880859375,-2.4298691749572754,0.7102835774421692,3.0385963916778564
1684594521974575900,1.932575927734375,-1.7400496006011963,0.5059491395950317,2.646420955657959
1684594521991440000,1.94943994140625,-1.288467526435852,0.28955012559890747,2.2073614597320557
1684594522008320500,1.966320556640625,-1.1966849565505981,0.21670444309711456,1.9938641786575317
1684594522025193000,1.98319287109375,-1.2319624423980713,0.036041051149368286,2.116189956665039
1684594522042066200,2.000066162109375,-1.1183415651321411,-0.37079519033432007,2.1430680751800537
1684594522058927400,2.01692724609375,-0.8254316449165344,-0.6831000447273254,1.9055941104888916
1684594522075811000,2.03381103515625,-0.34834590554237366,-0.7015787363052368,1.5149458646774292
1684594522092683800,2.050683837890625,0.11148291081190109,-0.7816020846366882,1.2916746139526367
1684594522109556200,2.06755615234375,0.6502660512924194,-0.531758189201355,1.2050844430923462
1684594522126428400,2.084428466796875,1.0685560703277588,-0.20845776796340942,0.9633345007896423
1684594522143298800,2.101298828125,1.033125877380371,-0.2557998299598694,0.21578814089298248
1684594522160172300,2.11817236328125,0.8315402865409851,-0.6650795340538025,-0.9109528064727783
1684594522177051400,2.135051513671875,0.9385944604873657,-0.877966046333313,-1.7440202236175537
1684594522193916400,2.15191650390625,1.4330898523330688,-1.1397218704223633,-2.3828325271606445
1684594522210794200,2.168794189453125,2.21056866645813,-0.6843217611312866,-2.568840980529785
1684594522227664400,2.185664306640625,2.26737904548645,0.5757405161857605,-2.2198843955993652
1684594522244537000,2.202537109375,2.082439661026001,1.5876387357711792,-1.4750868082046509
1684594522261419000,2.2194189453125,2.1222984790802,1.4891366958618164,-0.9636399149894714
1684594522278282500,2.236282470703125,2.2272145748138428,0.9103419184684753,-0.3572034537792206
1684594522295154700,2.25315478515625,2.0308215618133545,0.5586362481117249,0.2906191349029541
1684594522312027600,2.270027587890625,1.9060522317886353,0.769690215587616,0.6530149579048157
1684594522328900000,2.286900146484375,1.6705636978149414,0.9586002826690674,0.6067419052124023
1684594522345772500,2.3037724609375,1.0546588897705078,0.8185594081878662,0.2606867551803589
1684594522362645200,2.320645263671875,0.5525276064872742,0.7922922372817993,-0.09468411654233932
1684594522379518200,2.337518310546875,0.33108896017074585,0.5157229900360107,-0.078343465924263
1684594522396390100,2.35439013671875,0.15393804013729095,0.30146199464797974,-0.3171917796134949
1684594522413252400,2.37125244140625,0.0933096632361412,0.42439863085746765,-0.5386304259300232
1684594522430135800,2.3881357421875,-0.16783522069454193,0.6177374720573425,-0.6395758986473083
1684594522447008500,2.405008544921875,-0.6928738951683044,0.9610437750816345,-0.8695666790008545
1684594522463884000,2.421884033203125,-1.4856243133544922,1.0474811792373657,-1.0603092908859253
1684594522480750000,2.43875,-1.7594445943832397,1.1242974996566772,-1.200502872467041
1684594522497623300,2.455623291015625,-2.062891960144043,0.9553932547569275,-0.8973610401153564
1684594522514491000,2.472490966796875,-2.4668266773223877,0.6035348773002625,-1.0852020978927612
1684594522531371300,2.489371337890625,-2.8489227294921875,0.02367102913558483,-2.0036380290985107
1684594522548241400,2.506241455078125,-3.0024027824401855,-0.4080579876899719,-2.445446252822876
1684594522565119200,2.523119140625,-2.657569169998169,0.7519751191139221,-1.923156499862671
1684594522581989400,2.5399892578125,-2.2099578380584717,0.9758572578430176,-1.3031282424926758
1684594522598860800,2.55686083984375,-1.5888605117797852,-1.027475357055664,-0.42180246114730835
1684594522615735300,2.5737353515625,-1.1143709421157837,-1.7999144792556763,0.15057829022407532
1684594522632606700,2.590606689453125,-0.6269004344940186,-1.3338242769241333,0.508698046207428
1684594522649479700,2.607479736328125,-0.0884227454662323,-0.2353358417749405,0.7918340563774109
1684594522666352000,2.62435205078125,0.8700248003005981,0.6359107494354248,0.9456194043159485
1684594522683224800,2.641224853515625,0.9384417533874512,1.9889771938323975,1.0934487581253052
1684594522700097300,2.65809716796875,0.7469354867935181,3.0364584922790527,1.0740537643432617
1684594522716977000,2.674976806640625,0.8671231865882874,2.7001771926879883,1.296408772468567
1684594522733831700,2.691831787109375,1.0700831413269043,1.8820757865905762,1.7679967880249023
1684594522750715400,2.70871533203125,1.0910053253173828,1.5306755304336548,2.4246768951416016
1684594522767587800,2.725587890625,1.0618364810943604,1.9802724123001099,3.219107151031494
1684594522784460800,2.742460693359375,1.3573426008224487,1.9504927396774292,3.657402992248535
1684594522801333000,2.7593330078125,0.5890268087387085,0.8462010622024536,3.7358992099761963
1684594522818203000,2.776202880859375,-0.4245513379573822,-0.598647952079773,3.0353894233703613
1684594522835080700,2.793080810546875,-0.1963931769132614,-1.2609785795211792,2.1670444011688232
1684594522851951000,2.809951171875,0.9236282706260681,0.0705549344420433,1.8574885129928589
1684594522868823000,2.826822998046875,1.2113457918167114,1.49738347530365,1.933235764503479
1684594522885696300,2.8436962890625,1.024420976638794,2.6703975200653076,1.733788251876831
1684594522902569000,2.86056884765625,0.5887213945388794,3.4463489055633545,1.0422887802124023
1684594522919441700,2.877441650390625,0.06276640295982361,2.4492642879486084,0.1062905490398407
1684594522936313600,2.894313720703125,-0.685390830039978,0.850171685218811,-0.30146199464797974
1684594522953186300,2.911186279296875,-1.109636664390564,-0.6858489513397217,-0.5500841736793518
1684594522970059300,2.928059326171875,-0.841008722782135,-1.2348641157150269,-0.794277548789978
1684594522986931700,2.944931640625,-0.2945897579193115,-1.4902057647705078,-1.0418306589126587
1684594523003795700,2.961795654296875,0.31062498688697815,-1.3768903017044067,-1.0771081447601318
1684594523020680000,2.978679931640625,0.7774787545204163,-0.699288010597229,-0.7640396952629089
1684594523037547000,2.995547119140625,0.998153805732727,0.014508049935102463,-0.35582900047302246
1684594523054424800,3.0124248046875,0.8901833891868591,0.06062837690114975,-0.23228150606155396
1684594523071284000,3.029283935546875,0.5396994352340698,-0.36392298340797424,-0.40851613879203796
1684594523088162600,3.04616259765625,0.18616119027137756,-0.42210787534713745,-0.5925393104553223
1684594523105040400,3.063040283203125,0.12324206531047821,-0.18356500566005707,-0.585667073726654
1684594523121913000,3.0799130859375,0.20693060755729675,0.047800205647945404,-0.5371032953262329
1684594523138785300,3.096785400390625,0.2356412708759308,0.030695978552103043,-0.4628831446170807
1684594523155655200,3.1136552734375,0.24419337511062622,0.13454307615756989,-0.23426681756973267
1684594523172536000,3.1305361328125,0.1736384481191635,0.39538252353668213,0.14676037430763245
1684594523189400300,3.147400390625,0.1267545372247696,0.21441370248794556,0.31581732630729675
1684594523206275300,3.164275390625,0.12003502249717712,-0.18066339194774628,0.28756481409072876
1684594523223148000,3.18114794921875,0.1488984078168869,-0.3326161205768585,0.3197879493236542
1684594523240021200,3.198021240234375,0.1485929638147354,-0.21639901399612427,0.4178318381309509
1684594523256894000,3.21489404296875,0.12095131725072861,-0.022602014243602753,0.4899139404296875
1684594523273766000,3.231765869140625,0.0685696229338646,0.048716504126787186,0.4616613984107971
1684594523290638600,3.248638671875,-0.02275473065674305,0.08720101416110992,0.40393465757369995
1684594523307511300,3.26551123046875,-0.1518000066280365,0.2220495194196701,0.4132503271102905
1684594523324384500,3.282384521484375,-0.27779096364974976,0.3455969989299774,0.49037206172943115
1684594523341256700,3.299256591796875,-0.3585779070854187,0.2701551616191864,0.5638286471366882
1684594523358116600,3.31611669921875,-0.3280346393585205,0.08048149943351746,0.6053674817085266
1684594523374994700,3.33299462890625,-0.21135938167572021,-0.05497787147760391,0.6320928335189819
1684594523391874800,3.349874755859375,-0.11774427443742752,-0.041691552847623825,0.6890559792518616
1684594523408746800,3.366746826171875,-0.08460483700037003,0.11239920556545258,0.7751879692077637
1684594523425619500,3.383619384765625,-0.07727445662021637,0.28420504927635193,0.8471173644065857
1684594523442485200,3.4004853515625,-0.05696318298578262,0.28328874707221985,0.8097018599510193
1684594523459365400,3.417365478515625,0.044287730008363724,0.2744311988353729,0.7205155491828918
1684594523476237300,3.4342373046875,0.12980885803699493,0.22128593921661377,0.6401867866516113
1684594523493110300,3.4511103515625,0.14446963369846344,0.15561792254447937,0.5868887901306152
1684594523509983000,3.46798291015625,0.1014036312699318,0.12767083942890167,0.5844452977180481
1684594523526852900,3.484852783203125,0.05497787147760391,0.09636399149894714,0.6243042945861816
1684594523543730200,3.501730224609375,-0.0074830991216003895,-0.030085112899541855,0.6800457239151001
1684594523560600300,3.518600341796875,-0.056352317333221436,-0.13836097717285156,0.7820602059364319
1684594523577470200,3.53547021484375,-0.0679587572813034,-0.1768454909324646,0.9472993016242981
1684594523594349000,3.55234912109375,-0.05467243865132332,-0.17577648162841797,1.1246029138565063
1684594523611218400,3.569218505859375,-0.033139441162347794,-0.0861319974064827,1.253800868988037
1684594523628091100,3.586091064453125,-0.04505131021142006,-0.007941247895359993,1.2640329599380493
1684594523644963600,3.602963623046875,-0.09376781433820724,0.05955936014652252,1.1763737201690674
1684594523661825800,3.61982568359375,-0.10781771689653397,0.19914206862449646,1.0760390758514404
1684594523678709000,3.636708984375,-0.08307767659425735,0.33246341347694397,0.9589056968688965
1684594523695581400,3.65358154296875,-0.03191770985722542,0.4106541574001312,0.8926268219947815
1684594523712454000,3.670453857421875,0.0555887371301651,0.49617528915405273,0.9616546034812927
1684594523729316400,3.68731640625,0.16844609379768372,0.6792821288108826,1.1258246898651123
1684594523746199300,3.70419921875,0.24984388053417206,0.8358163833618164,1.289536476135254
1684594523763071700,3.72107177734375,0.32498031854629517,1.0700831413269043,1.4249958992004395
1684594523779938600,3.7379384765625,0.40622538328170776,1.4289665222167969,1.5195273160934448
1684594523796806700,3.754806640625,0.446389764547348,1.6682729721069336,1.5060882568359375
1684594523813689600,3.771689697265625,0.3868304193019867,1.4839444160461426,1.3132075071334839
1684594523830562600,3.7885625,0.2611449062824249,0.9005680680274963,1.0212140083312988
1684594523847435300,3.805435302734375,0.24159720540046692,0.6056728959083557,0.8240572214126587
1684594523864308000,3.822307861328125,0.34666603803634644,0.570242702960968,0.6209444999694824
1684594523881180000,3.839179931640625,0.49205195903778076,0.6582072973251343,0.4534147381782532
1684594523898052900,3.856052978515625,0.4766276180744171,0.7254024744033813,0.5748242139816284
1684594523914925300,3.87292529296875,0.29336804151535034,0.9133962392807007,0.9781479835510254
1684594523931798300,3.88979833984375,0.055741455405950546,1.1133018732070923,1.4721852540969849
1684594523948670700,3.906670654296875,-0.18035796284675598,1.1317806243896484,1.8270978927612305
1684594523965543400,3.92354345703125,-0.451582133769989,0.915534257888794,1.8437440395355225
1684594523982405400,3.9404052734375,-0.7110471725463867,0.7234171628952026,1.4517213106155396
1684594523999288800,3.957288818359375,-0.8542950749397278,1.0222829580307007,0.9124799370765686
1684594524016163300,3.974163330078125,-0.8651378750801086,1.623068928718567,0.4265366494655609
1684594524033034000,3.991033935546875,-0.745408296585083,2.1456642150878906,0.14263702929019928
1684594524049906700,4.00790673828125,-0.6298020482063293,2.417499303817749,0.1186605766415596
1684594524066779600,4.024779541015625,-0.6221662759780884,1.9364428520202637,0.11713340878486633
1684594524083651600,4.041651611328125,-0.5149593949317932,1.003498911857605,0.0809396430850029
1684594524100524300,4.058524169921875,-0.24785856902599335,0.1339322030544281,-0.012675453908741474
1684594524117386000,4.075385986328125,-0.019089538604021072,-0.41340306401252747,-0.23686300218105316
1684594524134269400,4.09226953125,0.10201449692249298,-0.5250386595726013,-0.3026837408542633
1684594524151131400,4.10913134765625,0.1748601794242859,-0.3446807265281677,0.05696318298578262
1684594524168014800,4.126014892578125,0.1313360333442688,-0.423329621553421,0.5041165351867676
1684594524184887600,4.142887451171875,-0.05910121276974678,-0.8147414922714233,0.7302893996238708
1684594524201750000,4.15975,-0.3049744665622711,-0.9775370955467224,0.626747727394104
1684594524218632200,4.176632080078125,-0.4358523488044739,-0.8100073337554932,0.28466320037841797
1684594524235505200,4.193505126953125,-0.41004329919815063,-0.6270532011985779,-0.06902777403593063
1684594524252377900,4.2103779296875,-0.275958389043808,-0.6627888083457947,-0.3617849349975586
1684594524269250800,4.227250732421875,-0.01618792861700058,-0.6994407176971436,-0.5664247870445251
1684594524286122800,4.244122802734375,0.3274237811565399,-0.5937610268592834,-0.6823364496231079
1684594524302996000,4.260995849609375,0.6522513628005981,-0.4668537676334381,-0.6650795340538025
1684594524319869000,4.277868896484375,0.7544185519218445,-0.49266281723976135,-0.48456886410713196
1684594524336741000,4.2947412109375,0.5885686874389648,-0.6236934065818787,-0.30482175946235657
1684594524353602800,4.311602783203125,0.3920227587223053,-0.822682797908783,-0.23625212907791138
1684594524370494700,4.32849462890625,0.4161519408226013,-0.9158397316932678,-0.2715296149253845
1684594524387359200,4.345359130859375,0.6502660512924194,-0.6965391039848328,-0.41172316670417786
1684594524404232000,4.36223193359375,0.8176431059837341,-0.2710714638233185,-0.5940664410591125
1684594524421104000,4.379104248046875,0.794277548789978,0.1111774742603302,-0.6591235995292664
1684594524437974300,4.395974365234375,0.5994115471839905,0.038637228310108185,-0.7029531598091125
1684594524454848500,4.4128486328125,0.3643811047077179,-0.30634891986846924,-0.7932085394859314
1684594524471725600,4.4297255859375,0.2197587788105011,-0.675006091594696,-0.865290641784668
1684594524488589300,4.44658935546875,0.22388210892677307,-0.8309294581413269,-0.7881689071655273
1684594524505467100,4.463467041015625,0.24678955972194672,-1.0277807712554932,-0.6041457056999207
1684594524522340000,4.480340087890625,0.1895209401845932,-1.550681471824646,-0.5459607839584351
1684594524539213000,4.497213134765625,0.1212567538022995,-2.074193000793457,-0.6475171446800232
1684594524556085000,4.5140849609375,0.15653422474861145,-2.110844850540161,-0.8159632682800293
1684594524572958000,4.5309580078125,0.24419337511062622,-1.39017653465271,-0.93095862865448
1684594524589830400,4.547830322265625,0.1485929638147354,-0.6015495657920837,-1.0929906368255615
1684594524606703600,4.56470361328125,-0.12782354652881622,0.00366519158706069,-1.3562735319137573
1684594524623575600,4.581575439453125,-0.3871358633041382,0.48426342010498047,-1.6406313180923462
1684594524640448300,4.5984482421875,-0.5279402732849121,0.6443101167678833,-1.8582520484924316
1684594524657318700,4.615318603515625,-0.5303837656974792,0.6572909951210022,-1.813048005104065
1684594524674196700,4.63219677734375,-0.43249258399009705,0.4167627990245819,-1.5815300941467285
1684594524691065900,4.64906591796875,-0.37430769205093384,-0.1235474944114685,-1.2670872211456299
1684594524707927000,4.665927001953125,-0.3494149148464203,-0.8133670687675476,-1.00502610206604
1684594524724799000,4.682799072265625,-0.27641651034355164,-1.3797918558120728,-0.7980954647064209
1684594524741679000,4.69967919921875,-0.16600263118743896,-1.5398385524749756,-0.5102251768112183
1684594524758556700,4.716556640625,-0.04734205827116966,-1.2628111839294434,-0.09728029370307922
1684594524775427300,4.73342724609375,0.06398813426494598,-0.7156286239624023,0.3448334336280823
1684594524792304600,4.7503046875,0.17241671681404114,-0.22571471333503723,0.5894849896430969
1684594524809170400,4.76717041015625,0.19104810059070587,0.08139779418706894,0.512210488319397
1684594524826051300,4.78405126953125,0.059406645596027374,0.28787025809288025,0.22388210892677307
1684594524842920000,4.800919921875,-0.08903361111879349,0.6151412725448608,0.009621127508580685
1684594524859792400,4.81779248046875,-0.01664607785642147,1.0561859607696533,0.031612277030944824
1684594524876665600,4.83466552734375,0.2509129047393799,1.258840560913086,0.2474004179239273
1684594524893537800,4.851537841796875,0.47189339995384216,0.8823948502540588,0.3962988257408142
1684594524910410500,4.868410400390625,0.5873469114303589,0.07177666574716568,0.4127921760082245
1684594524927281200,4.88528125,0.6501133441925049,-0.9627236127853394,0.32528573274612427
1684594524944157700,4.90215771484375,0.6667594313621521,-2.007303237915039,0.23121249675750732
1684594524961028400,4.9190283203125,0.5931501388549805,-2.490192174911499,0.337044894695282
1684594524977898800,4.935898681640625,0.2958115041255951,-2.0809123516082764,0.7525860071182251
1684594524994776000,4.952776123046875,-0.17592918872833252,-1.5880969762802124,1.0534371137619019
1684594525011644200,4.96964404296875,-0.49144110083580017,-1.1525499820709229,1.0812314748764038
1684594525028521500,4.986521484375,-0.5125159621238708,-0.3481931984424591,1.0143417119979858
1684594525045391400,5.003391357421875,-0.365755558013916,0.6212499737739563,0.9092729091644287
1684594525062265000,5.02026513671875,-0.18478673696517944,1.5563318729400635,0.7232644557952881
1684594525079137000,5.037136962890625,-0.059864792972803116,2.3292291164398193,0.45723262429237366
1684594525096009500,5.054009521484375,-0.06765332818031311,2.7902796268463135,0.21991148591041565
1684594525112882200,5.070882080078125,-0.20845776796340942,2.8985555171966553,0.10094548016786575
1684594525129755000,5.0877548828125,-0.3361285924911499,2.8579330444335938,0.1999056488275528
1684594525146625000,5.104625,-0.3081815242767334,2.7814221382141113,0.5761986374855042
1684594525163502300,5.12150244140625,-0.3026837408542633,2.182926893234253,0.9920451641082764
1684594525180372500,5.13837255859375,-0.385303258895874,1.1562151908874512,1.3101532459259033
1684594525197242400,5.155242431640625,-0.4576907753944397,0.2716823220252991,1.4485142230987549
1684594525214120700,5.17212060546875,-0.42302417755126953,-0.23335053026676178,1.3167200088500977
1684594525230990300,5.188990234375,-0.3098613917827606,-0.2935207486152649,0.9737191796302795
1684594525247863000,5.205863037109375,-0.1293507218360901,-0.06490442901849747,0.6505714654922485
1684594525264735700,5.22273583984375,0.03390302136540413,0.22449298202991486,0.5761986374855042
1684594525281613800,5.23961376953125,0.10491610318422318,0.18784105777740479,0.5867360830307007
1684594525298480600,5.256480712890625,0.056810468435287476,-0.14416420459747314,0.45692721009254456
1684594525315353900,5.273353759765625,-0.03787364438176155,-0.2967278063297272,0.19196440279483795
1684594525332226600,5.2902265625,-0.08964447677135468,-0.05268712714314461,-0.09666942805051804
1684594525349099500,5.307099609375,-0.11468994617462158,0.31673362851142883,-0.28725937008857727
1684594525365971500,5.323971435546875,-0.19593502581119537,0.760832667350769,-0.2535090744495392
1684594525382844200,5.34084423828125,-0.3572034537792206,0.960280179977417,-0.12553280591964722
1684594525399717000,5.357717041015625,-0.5141957998275757,0.9508117437362671,0.05054909735918045
1684594525416589600,5.374589599609375,-0.6013968586921692,0.6502660512924194,0.1333213448524475
1684594525433461800,5.391461669921875,-0.6003278493881226,0.10461067408323288,0.1137736514210701
1684594525450335000,5.4083349609375,-0.5062545537948608,-0.45555275678634644,0.15775595605373383
1684594525467207400,5.42520751953125,-0.3747658133506775,-0.8851437568664551,0.33047810196876526
1684594525484080600,5.44208056640625,-0.28496864438056946,-1.401477575302124,0.3604104816913605
1684594525500952600,5.45895263671875,-0.22540926933288574,-1.736537218093872,0.21135938167572021
1684594525517823200,5.4758232421875,-0.16829337179660797,-1.5502232313156128,0.09040805697441101
1684594525534707000,5.49270703125,-0.1635591685771942,-1.0618364810943604,0.15225815773010254
1684594525551570700,5.50957080078125,-0.23090706765651703,-0.8278751373291016,0.355981707572937
1684594525568443000,5.52644287109375,-0.3139847218990326,-1.0143417119979858,0.47571131587028503
1684594525585316000,5.543316162109375,-0.31261029839515686,-1.333213448524475,0.28848111629486084
1684594525602188800,5.560188720703125,-0.1160643994808197,-1.4763085842132568,-0.04795292019844055
1684594525619061500,5.5770615234375,0.10522153973579407,-1.325730323791504,-0.20601430535316467
1684594525635933400,5.593933349609375,0.1417207419872284,-1.1498011350631714,-0.0503963828086853
1684594525652788200,5.610788330078125,0.04612032696604729,-1.109636664390564,0.2695443034172058
1684594525669679400,5.627679443359375,0.012980886735022068,-1.2777774333953857,0.39248090982437134
1684594525686552300,5.64455224609375,0.11102475970983505,-1.2631165981292725,0.3364340364933014
1684594525703424300,5.66142431640625,0.21212296187877655,-0.9705121517181396,0.2790127098560333
1684594525720297500,5.67829736328125,0.2021963894367218,-0.7486153841018677,0.256868839263916
1684594525737169200,5.695169189453125,0.09315694868564606,-0.7535023093223572,0.26939156651496887
1684594525754043100,5.712043212890625,-0.02535090781748295,-0.8399397134780884,0.32162055373191833
1684594525770914600,5.72891455078125,-0.08002334833145142,-0.8642216324806213,0.3677408695220947
1684594525787775500,5.745775390625,-0.09056077152490616,-0.7811439037322998,0.399200439453125
1684594525804663000,5.7626630859375,-0.13698652386665344,-0.6725626587867737,0.43279802799224854
1684594525821533200,5.779533203125,-0.22128593921661377,-0.737772524356842,0.3885102868080139
1684594525838405600,5.796405517578125,-0.3023782968521118,-0.8139779567718506,0.27550023794174194
1684594525855278000,5.813278076171875,-0.3530801236629486,-0.6282749176025391,0.1872301995754242
1684594525872148700,5.830148681640625,-0.4202753007411957,-0.27000242471694946,0.15882496535778046
1684594525889026600,5.847026611328125,-0.48915034532546997,-0.1915062516927719,0.06429356336593628
1684594525905896200,5.863896240234375,-0.4758640229701996,-0.14385876059532166,-0.05864306539297104
1684594525922769000,5.880768798828125,-0.37461310625076294,-0.06704246252775192,-0.19715675711631775
1684594525939641600,5.8976416015625,-0.2984076738357544,0.05619960278272629,-0.23655757308006287
1684594525956514600,5.9145146484375,-0.31031954288482666,0.06398813426494598,-0.14126259088516235
1684594525973386800,5.93138671875,-0.3501785099506378,0.0032070425804704428,-0.039095375686883926
1684594525990259700,5.948259765625,-0.3510948121547699,-0.012828170321881771,-0.03237585723400116
1684594526007121700,5.96512158203125,-0.3202461004257202,0.0884227454662323,-0.07987063378095627
1684594526024005000,5.982005126953125,-0.26511552929878235,0.1820378452539444,-0.1359175145626068
1684594526040877600,5.998877685546875,-0.20952677726745605,0.1699732542037964,-0.16050484776496887
1684594526057750300,6.015750244140625,-0.19043724238872528,0.05360342562198639,-0.10155634582042694
1684594526074622700,6.032622802734375,-0.14584407210350037,-0.11423180252313614,-0.0403171069920063
1684594526091496000,6.049495849609375,0.0032070425804704428,-0.04596760869026184,-0.020463986322283745
1684594526108367600,6.06636767578125,0.18570303916931152,-0.1111774742603302,-0.2102903574705124
1684594526125240800,6.08324072265625,0.30024027824401855,0.08857546001672745,-0.2945897579193115
1684594526142113500,6.100113525390625,0.27641651034355164,0.022449297830462456,-0.27809640765190125
1684594526158986500,6.116986572265625,0.17440202832221985,-0.0685696229338646,-0.11591167747974396
1684594526175858400,6.1338583984375,0.14798210561275482,-0.12553280591964722,-0.014202617108821869
1684594526192731600,6.150731689453125,0.26450464129447937,0.05406157299876213,-0.05696318298578262
1684594526209604400,6.167604248046875,0.4005748927593231,0.2825251817703247,-0.19517144560813904
1684594526226477000,6.18447705078125,0.42928555607795715,0.33948835730552673,-0.2814561724662781
1684594526243349000,6.201348876953125,0.3393356502056122,0.22342395782470703,-0.2064724564552307
1684594526260222200,6.21822216796875,0.24190263450145721,0.07956519722938538,-0.06765332818031311
1684594526277094700,6.2350947265625,0.2272418737411499,0.11911872029304504,-0.01664607785642147
1684594526293967600,6.251967529296875,0.27229318022727966,0.35292738676071167,-0.08261952549219131
1684594526310839800,6.26883984375,0.2961169183254242,0.5436700582504272,-0.17806722223758698
1684594526327712800,6.285712646484375,0.28756481409072876,0.494189977645874,-0.21960605680942535
1684594526344585200,6.302585205078125,0.3130684494972229,0.3689626157283783,-0.2174680233001709
1684594526361449700,6.31944970703125,0.3695734739303589,0.3433062732219696,-0.22113321721553802
1684594526378330400,6.336330322265625,0.4082106947898865,0.41401392221450806,-0.25473082065582275
1684594526395203300,6.353203369140625,0.3937026560306549,0.44944411516189575,-0.31383201479911804
1684594526412076000,6.370075927734375,0.3390302062034607,0.39584067463874817,-0.35873061418533325
1684594526428949000,6.386948974609375,0.2964223623275757,0.3260493278503418,-0.37827831506729126
1684594526445820700,6.403820556640625,0.28267788887023926,0.33719760179519653,-0.3677408695220947
1684594526462694000,6.42069384765625,0.25182920694351196,0.39675697684288025,-0.34987306594848633
1684594526479566800,6.43756689453125,0.16065755486488342,0.47311514616012573,-0.313373863697052
1684594526496442000,6.454442138671875,0.03527746722102165,0.5410739183425903,-0.25244006514549255
1684594526513309000,6.471308837890625,-0.09575312584638596,0.5064072608947754,-0.1889100819826126
1684594526530185000,6.48818505859375,-0.21563543379306793,0.36010506749153137,-0.12079860270023346
1684594526547045000,6.505045166015625,-0.313373863697052,0.1537853181362152,-0.032070424407720566
1684594526563921700,6.521921630859375,-0.385303258895874,-0.10720685124397278,0.047189339995384216
1684594526580802300,6.53880224609375,-0.44257187843322754,-0.26419922709465027,0.15775595605373383
1684594526597677600,6.555677490234375,-0.48609602451324463,-0.3153591752052307,0.28267788887023926
1684594526614546000,6.5725458984375,-0.5006040930747986,-0.36453384160995483,0.3594942092895508
1684594526631421000,6.5894208984375,-0.4726569950580597,-0.4098905920982361,0.38347065448760986
1684594526648293000,6.606293212890625,-0.4115704596042633,-0.4216497242450714,0.3732386529445648
1684594526665165800,6.623165771484375,-0.34437528252601624,-0.4158465266227722,0.35705074667930603
1684594526682038500,6.64003857421875,-0.29107728600502014,-0.4245513379573822,0.34926220774650574
1684594526698908400,6.656908447265625,-0.2580905556678772,-0.4317290186882019,0.3701843321323395
1684594526715783700,6.67378369140625,-0.2197587788105011,-0.40256020426750183,0.39354994893074036
1684594526732656600,6.69065673828125,-0.18112154304981232,-0.33887749910354614,0.37262779474258423
1684594526749529300,6.707529296875,-0.1992947906255722,-0.28237244486808777,0.34376442432403564
1684594526766402000,6.724402099609375,-0.2606867551803589,-0.3904955983161926,0.3321579694747925
1684594526783274200,6.741274169921875,-0.29275718331336975,-0.6801984310150146,0.33460143208503723
1684594526800147000,6.75814697265625,-0.25335636734962463,-0.9851729273796082,0.3274237811565399
1684594526817020000,6.77502001953125,-0.18845193088054657,-1.0175487995147705,0.3903428912162781
1684594526833892900,6.791892822265625,-0.144622340798378,-0.9789115786552429,0.44455718994140625
1684594526850765000,6.80876513671875,-0.11911872029304504,-0.8460483551025391,0.49586987495422363
1684594526867638000,6.825637939453125,-0.12431107461452484,-0.7209737300872803,0.508698046207428
1684594526884510500,6.842510498046875,-0.10873401165008545,-0.6452264189720154,0.4285219609737396
1684594526901383700,6.8593837890625,-0.04138612002134323,-0.5432119369506836,0.2617557644844055
1684594526918255900,6.876255859375,0.046273041516542435,-0.3819434940814972,0.06658431142568588
1684594526935128300,6.89312841796875,0.11530081182718277,-0.16233743727207184,-0.09605856239795685
1684594526952001300,6.910001220703125,0.16829337179660797,-0.02871066704392433,-0.19883663952350616
1684594526968874200,6.926874267578125,0.09972374886274338,0.35811975598335266,0.07467827945947647
1684594526985746400,6.943746337890625,0.11560624837875366,-0.23716843128204346,-0.19593502581119537
1684594527002619400,6.960619384765625,0.12476922571659088,-0.0022907445672899485,-0.24113905429840088
1684594527019492000,6.9774921875,0.08765916526317596,0.11850785464048386,-0.2344195395708084
1684594527036364800,6.99436474609375,0.11194105446338654,0.2116648107767105,-0.18341228365898132
1684594527053237200,7.0112373046875,0.1895209401845932,0.33337971568107605,-0.18829920887947083
1684594527070110200,7.028110107421875,0.19562959671020508,0.37369680404663086,-0.20815233886241913
1684594527086982700,7.044982666015625,0.14385876059532166,0.31001409888267517,-0.1794416606426239
1684594527103855600,7.061855712890625,0.11988230794668198,0.19318613409996033,-0.11591167747974396
1684594527120727800,7.078727783203125,0.19043724238872528,0.1417207419872284,-0.08185594528913498
1684594527137587700,7.095587646484375,0.3399465084075928,0.21884247660636902,-0.11698069423437119
1684594527154476000,7.11247607421875,0.46700647473335266,0.37339138984680176,-0.19547687470912933
1684594527171346400,7.129346435546875,0.47907108068466187,0.5115996599197388,-0.24556782841682434
1684594527188218400,7.14621826171875,0.3975205719470978,0.4943426847457886,-0.23808473348617554
1684594527205091300,7.16309130859375,0.313373863697052,0.3446807265281677,-0.18784105777740479
1684594527221964000,7.179964111328125,0.3124575614929199,0.18524488806724548,-0.14340060949325562
1684594527238836700,7.196836669921875,0.39645153284072876,0.14233160018920898,-0.152105450630188
1684594527255709000,7.213708984375,0.475253164768219,0.206777885556221,-0.2025018334388733
1684594527272582100,7.23058203125,0.4999932050704956,0.3488040566444397,-0.24862214922904968
1684594527289454000,7.2474541015625,0.49327367544174194,0.508087158203125,-0.2932153046131134
1684594527306328600,7.26432861328125,0.46899178624153137,0.6304129362106323,-0.34987306594848633
1684594527323199700,7.28119970703125,0.4311181604862213,0.6983717083930969,-0.4138612151145935
1684594527340073000,7.298072998046875,0.36911532282829285,0.6928738951683044,-0.4786129295825958
1684594527356945400,7.3149453125,0.2822197377681732,0.5984952449798584,-0.531758189201355
1684594527373818600,7.331818603515625,0.16630806028842926,0.45036038756370544,-0.5309945940971375
1684594527390690300,7.348690185546875,0.027641652151942253,0.3156646192073822,-0.4358523488044739
1684594527407563500,7.3655634765625,-0.12751811742782593,0.20754146575927734,-0.2626720666885376
1684594527424436200,7.382436279296875,-0.2970332205295563,0.10812314599752426,-0.06811147183179855
1684594527441309200,7.39930908203125,-0.4761694669723511,0.028099801391363144,0.13775011897087097
1684594527458181400,7.416181396484375,-0.64217209815979,-0.03481931984424591,0.3246748745441437
1684594527475054300,7.433054443359375,-0.7620543837547302,-0.11942415684461594,0.43279802799224854
1684594527491926800,7.4499267578125,-0.8240572214126587,-0.2102903574705124,0.4567744731903076
1684594527508800000,7.466800048828125,-0.8248208165168762,-0.24877487123012543,0.4398229718208313
1684594527525672200,7.483672119140625,-0.7673994898796082,-0.24648413062095642,0.42302417755126953
1684594527542545000,7.500544921875,-0.6675229668617249,-0.20112738013267517,0.4437935948371887
1684594527559417900,7.51741796875,-0.551305890083313,-0.21441370248794556,0.4648684561252594
1684594527576290600,7.53429052734375,-0.4291328489780426,-0.33292156457901,0.4285219609737396
1684594527593162500,7.55116259765625,-0.29886582493782043,-0.40103304386138916,0.36361753940582275
1684594527610036000,7.568035888671875,-0.16264286637306213,-0.3692680299282074,0.2955060601234436
1684594527626905900,7.58490576171875,-0.0607810914516449,-0.37171149253845215,0.2483167201280594
1684594527643784000,7.601783935546875,-0.06902777403593063,-0.5769622325897217,0.22831088304519653
1684594527660653600,7.618653564453125,-0.14676037430763245,-0.8822421431541443,0.25732699036598206
1684594527677524000,7.63552392578125,-0.20693060755729675,-1.1117748022079468,0.3153591752052307
1684594527694401800,7.65240185546875,-0.21441370248794556,-1.0787880420684814,0.403323769569397
1684594527711272200,7.669272216796875,-0.19593502581119537,-0.8807149529457092,0.5082398653030396
1684594527728144400,7.686144287109375,-0.17119498550891876,-0.5459607839584351,0.6099489331245422
1684594527745017300,7.703017333984375,-0.12095131725072861,-0.45982882380485535,0.5455026626586914
1684594527761890000,7.71989013671875,-0.07742717117071152,-0.37919458746910095,0.4440990388393402
1684594527778763000,7.736762939453125,-0.020616702735424042,-0.384845107793808,0.3010038435459137
1684594527795635200,7.75363525390625,0.05665775015950203,-0.26221391558647156,0.1837177276611328
1684594527812508200,7.770508056640625,-0.06169738993048668,0.9272934198379517,0.8254316449165344
1684594527829372400,7.787372314453125,-0.03726277872920036,0.17776179313659668,0.3326161205768585
1684594527846253800,7.80425390625,0.005192354787141085,0.08888089656829834,-0.16798794269561768
1684594527863125800,7.821125732421875,0.11484266817569733,0.11010845750570297,-0.6626361012458801
1684594527879999000,7.8379990234375,0.1722639948129654,0.04306599870324135,-0.9173668622970581
1684594527896871400,7.854871337890625,0.12996158003807068,0.24587325751781464,-0.5755877494812012
1684594527913744600,7.87174462890625,0.0806342139840126,0.1846340149641037,-0.10461067408323288
1684594527930616300,7.8886162109375,0.12278391420841217,0.08170322328805923,0.0884227454662323
1684594527947489500,7.905489501953125,0.21135938167572021,0.18646661937236786,-0.009162978269159794
1684594527964362200,7.9223623046875,0.2249511331319809,0.3393356502056122,-0.19120082259178162
1684594527981235200,7.939235107421875,0.19837848842144012,0.37537670135498047,-0.32131510972976685
1684594527998107600,7.956107666015625,0.22770002484321594,0.3712533414363861,-0.35750889778137207
1684594528014980400,7.97298046875,0.3269656300544739,0.3257438838481903,-0.33017265796661377
1684594528031853300,7.989853271484375,0.4239404797554016,0.2658790946006775,-0.27977627515792847
1684594528048726000,8.00672607421875,0.4521929919719696,0.20952677726745605,-0.27290403842926025
1684594528065598200,8.02359814453125,0.4153883755207062,0.20586158335208893,-0.3202461004257202
1684594528082470000,8.040469970703125,0.3634648323059082,0.29107728600502014,-0.3718642294406891
1684594528099344000,8.05734375,0.33292156457901,0.43127086758613586,-0.38117989897727966
1684594528116216800,8.074216796875,0.3090978264808655,0.5224425196647644,-0.3579670190811157
1684594528133089000,8.091089111328126,0.2698497176170349,0.5158756971359253,-0.3263547718524933
1684594528149962200,8.107962158203126,0.23335053026676178,0.48548516631126404,-0.29565876722335815
1684594528166834700,8.124834716796874,0.23350323736667633,0.49098294973373413,-0.29657506942749023
1684594528183697000,8.14169677734375,0.26908615231513977,0.5157229900360107,-0.3507893681526184
1684594528200579800,8.158579833984374,0.32009339332580566,0.6004805564880371,-0.4288274049758911
1684594528217449200,8.17544921875,0.31642818450927734,0.6840163469314575,-0.4720461070537567
1684594528234329000,8.1923291015625,0.2064724564552307,0.7480044960975647,-0.417679101228714
1684594528251198500,8.209198486328125,-0.005650503560900688,0.7082982659339905,-0.23808473348617554
1684594528268071000,8.22607080078125,-0.2197587788105011,0.3016147017478943,-0.09437867999076843
1684594528284943400,8.242943359375,-0.33719760179519653,-0.13759739696979523,0.039248090237379074
1684594528301805600,8.2598056640625,-0.4008803069591522,-0.3845396637916565,0.20387627184391022
1684594528318689500,8.276689453125,-0.4645630121231079,-0.4970915913581848,0.3623957931995392
1684594528335561500,8.2935615234375,-0.5019785165786743,-0.5673410892486572,0.4502076804637909
1684594528352434400,8.310434326171874,-0.4859432876110077,-0.5716171264648438,0.44165557622909546
1684594528369307100,8.32730712890625,-0.41401392221450806,-0.5302310585975647,0.3698789179325104
1684594528386180000,8.34418017578125,-0.32131510972976685,-0.48685958981513977,0.3020728528499603
1684594528403052300,8.36105224609375,-0.2562579810619354,-0.46334129571914673,0.2790127098560333
1684594528419925200,8.37792529296875,-0.23518311977386475,-0.4202753007411957,0.28496864438056946
1684594528436798200,8.394798095703125,-0.26481008529663086,-0.3527746796607971,0.27580565214157104
1684594528453671200,8.411671142578125,-0.3326161205768585,-0.29397889971733093,0.2382374405860901
1684594528470543400,8.42854345703125,-0.42149701714515686,-0.2402227520942688,0.2548835277557373
1684594528487416300,8.445416259765626,-0.5096143484115601,-0.30863967537879944,0.35063666105270386
1684594528504288800,8.462288818359376,-0.5644394755363464,-0.48517972230911255,0.4392121136188507
1684594528521151200,8.479151123046876,-0.5763513445854187,-0.685390830039978,0.4792237877845764
1684594528538034000,8.496033935546874,-0.5340489149093628,-0.7328855991363525,0.4996877610683441
1684594528554907000,8.512906982421875,-0.4262312352657318,-0.5273294448852539,0.49357911944389343
1684594528571779800,8.52977978515625,-0.25671613216400146,-0.37690386176109314,0.3816380500793457
1684594528588652800,8.54665283203125,-0.07712173461914062,-0.28649580478668213,0.25442537665367126
1684594528605524700,8.563524658203125,0.06368270516395569,-0.3914119005203247,0.14248432219028473
1684594528622397700,8.580397705078125,0.17348572611808777,-0.5299255847930908,0.09437867999076843
1684594528639270700,8.597270751953126,0.06261368840932846,1.0367910861968994,1.0085384845733643
1684594528656143400,8.614143310546876,0.028405234217643738,-0.328340083360672,0.5855143666267395
1684594528673015800,8.631015869140626,-0.06475171446800232,-0.2506074607372284,0.6046038866043091
1684594528689888800,8.647888671875,-0.03436116874217987,-0.23136521875858307,0.21731531620025635
1684594528706761500,8.664761474609374,0.06918048858642578,-0.1976149082183838,-0.28588494658470154
1684594528723634200,8.68163427734375,0.29107728600502014,-0.28206703066825867,-0.8399397134780884
1684594528740506600,8.698506591796875,0.4938845634460449,-0.3452915847301483,-1.1846203804016113
1684594528757377000,8.715376953125,0.46822822093963623,0.06352998316287994,-0.8321511745452881
1684594528774254800,8.7322548828125,0.303600013256073,0.18341228365898132,-0.23625212907791138
1684594528791125200,8.749125244140625,0.26022860407829285,0.032681290060281754,0.03756821155548096
1684594528807997700,8.765997802734375,0.3433062732219696,0.08124507963657379,-0.05390885844826698
1684594528824870400,8.782870361328126,0.35246923565864563,0.16752979159355164,-0.24526239931583405
1684594528841732600,8.799732666015625,0.26801711320877075,0.1511891484260559,-0.3061962127685547
1684594528858616000,8.816615966796874,0.24526239931583405,0.10949759185314178,-0.2964223623275757
1684594528875477500,8.8334775390625,0.34773504734039307,0.13057245314121246,-0.3017674386501312
1684594528892361500,8.850361572265625,0.460897833108902,0.17409659922122955,-0.28985556960105896
1684594528909234200,8.867234130859375,0.49327367544174194,0.17791450023651123,-0.25824329257011414
1684594528926107100,8.884107177734375,0.46471574902534485,0.17058411240577698,-0.2658790946006775
1684594528942979000,8.90097900390625,0.42791110277175903,0.24892759323120117,-0.3119994103908539
1684594528959852300,8.917852294921875,0.37720927596092224,0.38698312640190125,-0.3462078869342804
1684594528976724700,8.934724853515625,0.30833423137664795,0.48869219422340393,-0.3523165285587311
1684594528993598000,8.951597900390626,0.25076019763946533,0.5609270334243774,-0.3533855378627777
1684594529010470100,8.96847021484375,0.2292271852493286,0.6160575747489929,-0.3764457106590271
1684594529027343000,8.985343017578124,0.2376265823841095,0.6499606370925903,-0.4040873646736145
1684594529044216000,9.002216064453124,0.26313021779060364,0.6817256212234497,-0.413555771112442
1684594529061089000,9.019089111328125,0.2788599729537964,0.6626361012458801,-0.4161519408226013
1684594529077958700,9.035958740234374,0.2658790946006775,0.5766568183898926,-0.42302417755126953
1684594529094836500,9.05283642578125,0.22388210892677307,0.4870123267173767,-0.4054618179798126
1684594529111707000,9.069706787109375,0.1359175145626068,0.42180246114730835,-0.3263547718524933
1684594529128579600,9.08657958984375,0.0013744467869400978,0.33948835730552673,-0.18219055235385895
1684594529145451800,9.10345166015625,-0.1569923609495163,0.14752395451068878,-0.006719517521560192
1684594529162325000,9.120324951171876,-0.29886582493782043,-0.11835514008998871,0.16844609379768372
1684594529179197700,9.13719775390625,-0.3949243724346161,-0.2782491147518158,0.3191770911216736
1684594529196070700,9.154070556640624,-0.44684791564941406,-0.3439171314239502,0.3877467215061188
1684594529212942600,9.170942626953124,-0.46471574902534485,-0.27229318022727966,0.40393465757369995
1684594529229815800,9.18781591796875,-0.4786129295825958,-0.13072516024112701,0.418748140335083
1684594529246688800,9.204688720703125,-0.4973970353603363,-0.10247264802455902,0.423329621553421
1684594529263561500,9.2215615234375,-0.4928155243396759,-0.17623461782932281,0.43218716979026794
1684594529280433700,9.23843359375,-0.4576907753944397,-0.2692388594150543,0.44257187843322754
1684594529297306600,9.255306640625,-0.40194934606552124,-0.2831360399723053,0.46868637204170227
1684594529314179300,9.272179443359375,-0.35934147238731384,-0.26083946228027344,0.4836525619029999
1684594529331052500,9.289052490234376,-0.33337971568107605,-0.23350323736667633,0.4398229718208313
1684594529347924700,9.3059248046875,-0.33689218759536743,-0.15836681425571442,0.3836233615875244
1684594529364795100,9.322795166015625,-0.40454551577568054,-0.22540926933288574,0.3927863538265228
1684594529381660400,9.339660400390626,-0.4977024495601654,-0.4931209683418274,0.4830417037010193
1684594529398543400,9.35654345703125,-0.5132794976234436,-0.6759223937988281,0.5823072791099548
1684594529415415600,9.37341552734375,-0.42898011207580566,-0.6661485433578491,0.6377432942390442
1684594529432288800,9.390288818359375,-0.2974913716316223,-0.5322163701057434,0.6166684627532959
1684594529449161500,9.407161376953125,-0.14798210561275482,-0.4755585789680481,0.46670106053352356
1684594529466034400,9.424034423828125,-0.04489859566092491,-0.4105014503002167,0.33658674359321594
1684594529482906600,9.44090673828125,-0.005803219974040985,-0.3171917796134949,0.2831360399723053
1684594529499779800,9.45777978515625,-0.36010506749153137,2.8237245082855225,2.1933116912841797
1684594529516652300,9.47465234375,-0.3830125033855438,1.0894781351089478,1.5505287647247314
1684594529533525500,9.491525390625,-0.4789183437824249,0.7553348541259766,1.4953981637954712
1684594529550397700,9.508397705078124,-0.541532039642334,-0.04260785132646561,0.9926560521125793
1684594529567259600,9.525259765625,-0.5158756971359253,-0.11927144229412079,0.5586362481117249
1684594529584143000,9.54214306640625,-0.3410155177116394,0.12721268832683563,0.09086620807647705
1684594529601016300,9.559016357421875,-0.08399397134780884,0.11194105446338654,-0.5262604355812073
1684594529617888500,9.575888427734375,0.17088955640792847,0.07192938029766083,-1.1039862632751465
1684594529634761500,9.592761474609375,0.3724750876426697,-0.12247848510742188,-1.497994303703308
1684594529651634400,9.609634521484375,0.518471896648407,-0.6186537742614746,-1.7171422243118286
1684594529668507000,9.6265068359375,0.5597052574157715,-0.6055201888084412,-1.4567608833312988
1684594529685379300,9.64337939453125,0.43936482071876526,0.06643159687519073,-0.5549710988998413
1684594529702252300,9.660252197265624,0.3019201457500458,0.03649919852614403,0.06887505948543549
1684594529719125200,9.677125244140624,0.3292563557624817,-0.04642575979232788,0.17730364203453064
1684594529735988000,9.693988037109374,0.4375322461128235,-0.02733621932566166,0.00045814894838258624
1684594529752864500,9.710864501953125,0.46547931432724,0.019394971430301666,-0.1996002197265625
1684594529769746200,9.72774609375,0.41431936621665955,0.09682214260101318,-0.33139440417289734
1684594529786616300,9.7446162109375,0.3715587854385376,0.23808473348617554,-0.42989641427993774
1684594529803489000,9.761489013671875,0.36010506749153137,0.36163222789764404,-0.45875978469848633
1684594529820361500,9.778361572265625,0.33689218759536743,0.3874412775039673,-0.42241331934928894
1684594529837231900,9.79523193359375,0.29138273000717163,0.3546072840690613,-0.37369680404663086
1684594529854109700,9.812109619140625,0.24144448339939117,0.35094207525253296,-0.3599523603916168
1684594529870980000,9.82897998046875,0.2064724564552307,0.46792277693748474,-0.3985895812511444
1684594529887852500,9.8458525390625,0.17516560852527618,0.6417139172554016,-0.4607451260089874
1684594529904714800,9.86271484375,0.14523321390151978,0.7394523620605469,-0.5125159621238708
1684594529921587200,9.879587158203124,0.13271047174930573,0.7283040881156921,-0.5314527750015259
1684594529938471200,9.89647119140625,0.1485929638147354,0.6162103414535522,-0.5300782918930054
1684594529955343400,9.91334326171875,0.194713294506073,0.40301835536956787,-0.526107668876648
1684594529972216600,9.930216552734375,0.23854288458824158,0.20112738013267517,-0.4973970353603363
1684594529989089300,9.94708935546875,0.23105977475643158,0.07269296050071716,-0.4156937897205353
1684594530005961700,9.963961669921876,0.15195272862911224,0.03726277872920036,-0.29886582493782043
1684594530022834200,9.980834228515626,0.023060163483023643,0.030543262138962746,-0.17440202832221985
1684594530039707400,9.997707275390624,-0.09056077152490616,0.004428773187100887,-0.10949759185314178
1684594530056582400,10.01458251953125,-0.15332718193531036,-0.012980886735022068,-0.09254608303308487
1684594530073450800,10.03145068359375,-0.18860463798046112,-0.07757988572120667,-0.06261368840932846
1684594530090325500,10.048325439453125,-0.22052235901355743,-0.27641651034355164,0.003054326167330146
1684594530107198200,10.0651982421875,-0.24434609711170197,-0.5369505286216736,0.09682214260101318
1684594530124071000,10.08207080078125,-0.24434609711170197,-0.7325801253318787,0.19196440279483795
1684594530140944100,10.098944091796875,-0.2353358417749405,-0.8188648819923401,0.2587014436721802
1684594530157816300,10.11581640625,-0.2402227520942688,-0.813825249671936,0.265573650598526
1684594530174689300,10.132689208984376,-0.28038713335990906,-0.7038694620132446,0.23640485107898712
1684594530191562200,10.149562255859376,-0.35582900047302246,-0.6023131608963013,0.2275473028421402
1684594530208435200,10.166435302734374,-0.4043927788734436,-0.5873469114303589,0.2405281960964203
1684594530225307400,10.183307373046874,-0.3568980097770691,-0.5583308339118958,0.20128010213375092
1684594530242180400,10.200180419921875,-0.25931230187416077,-0.49556443095207214,0.12690725922584534
1684594530259042600,10.21704248046875,-0.17256943881511688,-0.5151121020317078,0.07880161702632904
1684594530275926000,10.233926025390625,-0.14004085958003998,-0.7447974681854248,0.10705413669347763
1684594530292798500,10.250798583984375,-0.15531249344348907,-1.143081545829773,0.21365012228488922
1684594530309671400,10.26767138671875,-0.1385136991739273,-1.411251425743103,0.2664899528026581
1684594530326544100,10.284544189453126,-0.06963863968849182,-1.2831224203109741,0.26282477378845215
1684594530343417000,10.3014169921875,0.006108652334660292,-0.8054258227348328,0.22479841113090515
1684594530360289000,10.3182890625,-0.019547687843441963,-0.36132678389549255,0.1420261710882187
1684594530377162200,10.335162353515624,-0.15592335164546967,-0.28878653049468994,0.11621711403131485
1684594530394035200,10.35203515625,-0.2799290120601654,-0.4407392740249634,0.19364428520202637
1684594530410908200,10.368908203125,-0.3095559775829315,-0.6436992287635803,0.2557998299598694
1684594530427780600,10.385780517578125,-0.22128593921661377,-0.6973026990890503,0.2532036304473877
1684594530444653600,10.402653564453125,-0.05726861581206322,-0.579405665397644,0.21960605680942535
1684594530461526000,10.419526123046875,0.11621711403131485,-0.39874228835105896,0.17730364203453064
1684594530478399200,10.436399169921875,0.24953845143318176,-0.28725937008857727,0.10216721147298813
1684594530495271700,10.453271728515626,0.32039880752563477,-0.21868975460529327,-0.0019853119738399982
1684594530512144600,10.47014453125,0.30085113644599915,-0.07131851464509964,-0.07330382615327835
1684594530529017300,10.487017333984374,0.20494529604911804,0.12660181522369385,-0.07101308554410934
1684594530545890300,10.503890380859374,0.11575896292924881,0.1459967941045761,-0.057879481464624405
1684594530562762500,10.520762451171874,0.10949759185314178,0.13454307615756989,-0.06520986557006836
1684594530579635500,10.537635498046875,0.15256360173225403,0.25442537665367126,-0.09056077152490616
1684594530596508200,10.554508056640625,0.17592918872833252,0.3608686327934265,-0.11804971098899841
1684594530613381400,10.57138134765625,0.18555031716823578,0.3901901841163635,-0.13897185027599335
1684594530630253600,10.588253662109375,0.22357667982578278,0.34636059403419495,-0.17211128771305084
1684594530647126500,10.60512646484375,0.30482175946235657,0.3550654351711273,-0.206777885556221
1684594530663999200,10.621999267578126,0.3851505517959595,0.5073235630989075,-0.2165517359972
1684594530680872400,10.63887255859375,0.4141666293144226,0.6192646622657776,-0.24465152621269226
1684594530697744400,10.655744384765624,0.3897320330142975,0.6394231915473938,-0.2590068578720093
1684594530714617600,10.67261767578125,0.3173444867134094,0.5474879741668701,-0.23350323736667633
1684594530731490600,10.689490478515625,0.23915374279022217,0.49357911944389343,-0.16401731967926025
1684594530748363500,10.706363525390625,0.20295998454093933,0.5343543887138367,-0.15195272862911224
1684594530765235700,10.723235595703125,0.19547687470912933,0.7163922190666199,-0.17821992933750153
1684594530782108700,10.740108642578125,0.17027868330478668,0.9053022861480713,-0.15363261103630066
1684594530798981000,10.756981201171875,0.14004085958003998,0.9934195876121521,-0.10766500234603882
1684594530815854300,10.773854248046876,0.11194105446338654,0.9440922141075134,-0.10797043144702911
1684594530832726800,10.790726806640626,0.09666942805051804,0.88361656665802,-0.13041973114013672
1684594530849599700,10.807599853515624,0.10583240538835526,0.9584475755691528,-0.14156801998615265
1684594530866472700,10.82447265625,0.12476922571659088,1.0980303287506104,-0.14782938361167908
1684594530883345400,10.841345458984375,0.1267545372247696,1.1470521688461304,-0.13301590085029602
1684594530900217900,10.8582177734375,0.1085812970995903,1.041067123413086,-0.09040805697441101
1684594530917090800,10.8750908203125,0.09453139454126358,0.8165740966796875,-0.03084869496524334
1684594530933963800,10.8919638671875,0.09544769674539566,0.5297728776931763,0.012064588256180286
1684594530950828500,10.90882861328125,0.09437867999076843,0.3173444867134094,0.03176499158143997
1684594530967709000,10.925708984375,0.04795292019844055,0.25473082065582275,0.08552113175392151
1684594530984582000,10.942581787109376,-0.06872233748435974,0.0910189226269722,0.15851953625679016
1684594531001444000,10.959444091796875,-0.17852537333965302,-0.18035796284675598,0.20723603665828705
1684594531018328000,10.976328125,-0.2480112910270691,-0.40164390206336975,0.2532036304473877
1684594531035200000,10.993199951171874,-0.28725937008857727,-0.5497786998748779,0.2984076738357544
1684594531052072700,11.01007275390625,-0.31230485439300537,-0.6155994534492493,0.33826664090156555
1684594531068946000,11.02694580078125,-0.33689218759536743,-0.6400340795516968,0.36972618103027344
1684594531085819000,11.04381884765625,-0.3459024429321289,-0.6276640295982361,0.38087448477745056
1684594531102691000,11.060691162109375,-0.3228422701358795,-0.588874101638794,0.32757648825645447
1684594531119564000,11.07756396484375,-0.2840523421764374,-0.48915034532546997,0.2200642079114914
1684594531136436700,11.094436767578125,-0.2765692472457886,-0.3280346393585205,0.11163562536239624
1684594531153310000,11.11131005859375,-0.31093040108680725,-0.26313021779060364,0.007941247895359993
1684594531170182100,11.12818212890625,-0.34208452701568604,-0.2428189367055893,-0.06734789162874222
1684594531187058000,11.145057861328125,-0.34086281061172485,-0.18157969415187836,-0.08704829961061478
1684594531203925000,11.161925048828126,-0.3576616048812866,-0.23197607696056366,-0.010079276748001575
1684594531220801000,11.178801025390625,-0.4297437071800232,-0.5731443166732788,0.1560760736465454
1684594531237673200,11.195673095703125,-0.44165557622909546,-0.982729434967041,0.2915354371070862
1684594531254546200,11.212546142578125,-0.3271183371543884,-1.0149526596069336,0.2597704529762268
1684594531271419000,11.2294189453125,-0.1820378452539444,-0.6035348773002625,0.17547103762626648
1684594531288292000,11.2462919921875,-0.13347405195236206,-0.15393804013729095,0.13545936346054077
1684594531305164300,11.263164306640626,-0.21914790570735931,-0.0555887371301651,0.21013765037059784
1684594531322037200,11.280037353515626,-0.32131510972976685,-0.3019201457500458,0.31612277030944824
1684594531338910200,11.29691015625,-0.3191770911216736,-0.5878050923347473,0.33567044138908386
1684594531355783200,11.313783203125,-0.2047925740480423,-0.6415612101554871,0.3396410644054413
1684594531372655600,11.330655517578125,-0.03833179548382759,-0.6843217611312866,0.32788193225860596
1684594531389528000,11.347528076171875,0.1134682223200798,-0.765566885471344,0.3698789179325104
1684594531406401500,11.364401611328125,0.2275473028421402,-0.7299839854240417,0.47830748558044434
1684594531423274200,11.381274169921875,0.3237585723400116,-0.6262896060943604,0.4908302128314972
1684594531440146200,11.398146240234375,0.37079519033432007,-0.4184426963329315,0.3599523603916168
1684594531457020200,11.415020263671876,0.3147483170032501,-0.13240504264831543,0.18906278908252716
1684594531473892400,11.431892333984376,0.204487144947052,0.08857546001672745,0.01466076634824276
1684594531490765000,11.44876513671875,0.09285151958465576,0.19608774781227112,-0.11041389405727386
1684594531507638000,11.465637939453124,0.02229658141732216,0.26053401827812195,-0.1595885455608368
1684594531524510500,11.482510498046874,0.01466076634824276,0.3303253948688507,-0.1693623960018158
1684594531541383400,11.499383544921875,0.02733621932566166,0.39095374941825867,-0.15806138515472412
1684594531558256600,11.516256591796875,0.02519819140434265,0.45631635189056396,-0.12767083942890167
1684594531575128800,11.53312890625,0.039706241339445114,0.5222898125648499,-0.13561208546161652
1684594531592001800,11.550001708984375,0.08460483700037003,0.6012440919876099,-0.18967366218566895
1684594531608874800,11.566874755859375,0.11820242553949356,0.6458373069763184,-0.22815817594528198
1684594531625747700,11.583747802734376,0.1267545372247696,0.6102544069290161,-0.252287358045578
1684594531642608600,11.600608642578125,0.14294247329235077,0.5239696502685547,-0.2838996350765228
1684594531659493000,11.6174931640625,0.18112154304981232,0.4642575979232788,-0.275958389043808
1684594531676365800,11.63436572265625,0.2477058619260788,0.41752639412879944,-0.21380282938480377
1684594531693238800,11.65123876953125,0.3214678466320038,0.3634648323059082,-0.1612684279680252
1684594531710111200,11.668111328125,0.3604104816913605,0.36102136969566345,-0.15515977144241333
1684594531726984200,11.684984130859375,0.3436116874217987,0.4216497242450714,-0.17760907113552094
1684594531743856600,11.701856689453125,0.27458393573760986,0.4938845634460449,-0.19547687470912933
1684594531760730000,11.718730224609375,0.18875735998153687,0.5552765130996704,-0.1797471046447754
1684594531777599500,11.735599609375,0.13454307615756989,0.5464189648628235,-0.16798794269561768
1684594531794477800,11.752477783203124,0.15134187042713165,0.4986187517642975,-0.18860463798046112
1684594531811348200,11.76934814453125,0.2223549485206604,0.4853324294090271,-0.22800545394420624
1684594531828221200,11.78622119140625,0.31230485439300537,0.49128836393356323,-0.2616030275821686
1684594531845093000,11.803093017578124,0.37919458746910095,0.49525898694992065,-0.28008171916007996
1684594531861966300,11.81996630859375,0.39324450492858887,0.5006040930747986,-0.270766019821167
1684594531878839600,11.836839599609375,0.3546072840690613,0.5337435007095337,-0.23258693516254425
1684594531895712000,11.8537119140625,0.2629774808883667,0.5958990454673767,-0.1895209401845932
1684594531912584200,11.870584228515625,0.12980885803699493,0.651029646396637,-0.1742493063211441
1684594531929457700,11.887457763671875,-0.03390302136540413,0.6498079299926758,-0.17760907113552094
1684594531946330600,11.90433056640625,-0.1745547503232956,0.5361869931221008,-0.16783522069454193
1684594531963203300,11.921203369140626,-0.23854288458824158,0.29168814420700073,-0.09911288321018219
1684594531980075800,11.93807568359375,-0.2678644061088562,-0.04535674303770065,0.032070424407720566
1684594531996948700,11.95494873046875,-0.3006984293460846,-0.3851505517959595,0.17608191072940826
1684594532013821400,11.971821533203125,-0.3352122902870178,-0.612850546836853,0.3043636083602905
1684594532030694700,11.988694580078125,-0.3501785099506378,-0.7163922190666199,0.39935314655303955
1684594532047566800,12.00556689453125,-0.3344487249851227,-0.7518224120140076,0.42928555607795715
1684594532064439800,12.022439697265625,-0.2770273983478546,-0.7142542004585266,0.38209620118141174
1684594532081306600,12.039306640625,-0.20311269164085388,-0.6017022728919983,0.2854267954826355
1684594532098185700,12.056185791015626,-0.16859880089759827,-0.4743368625640869,0.19624045491218567
1684594532115058000,12.073057861328126,-0.18539759516716003,-0.4050036668777466,0.1417207419872284
1684594532131931100,12.08993115234375,-0.22220222651958466,-0.3680463135242462,0.1388191282749176
1684594532148803600,12.106803466796874,-0.25305092334747314,-0.33658674359321594,0.1774563491344452
1684594532165676800,12.1236767578125,-0.28435778617858887,-0.43936482071876526,0.2171625941991806
1684594532182549000,12.140549072265625,-0.32650747895240784,-0.7269296646118164,0.2664899528026581
1684594532199422200,12.157422119140625,-0.3295617997646332,-1.0027352571487427,0.33307427167892456
1684594532216295000,12.174294921875,-0.2750420868396759,-1.0186177492141724,0.3878994286060333
1684594532233166300,12.191166259765625,-0.2093740701675415,-0.8284859657287598,0.4001167416572571
1684594532250041900,12.208041748046876,-0.16172657907009125,-0.551305890083313,0.34834590554237366
1684594532266913300,12.224913330078126,-0.15347988903522491,-0.3419318199157715,0.25763240456581116
1684594532283786000,12.241785888671876,-0.1892155110836029,-0.2174680233001709,0.18280142545700073
1684594532300659200,12.2586591796875,-0.2669481039047241,-0.15775595605373383,0.17333301901817322
1684594532317528800,12.27552880859375,-0.34666603803634644,-0.19349156320095062,0.24358251690864563
1684594532334398500,12.2923984375,-0.3376557528972626,-0.24373523890972137,0.28359419107437134
1684594532351277300,12.30927734375,-0.23350323736667633,-0.2093740701675415,0.2713768780231476
1684594532368150300,12.326150390625,-0.12247848510742188,-0.18387043476104736,0.26603180170059204
1684594532385022500,12.3430224609375,-0.021532999351620674,-0.28527405858039856,0.24434609711170197
1684594532401895700,12.359895751953125,0.08888089656829834,-0.27229318022727966,0.16493362188339233
1684594532418768400,12.376768310546876,0.14324790239334106,-0.10216721147298813,0.10293079167604446
1684594532435641000,12.39364111328125,0.1362229436635971,0.01237002108246088,0.05910121276974678
1684594532452513800,12.410513671875,0.1586722433567047,0.06918048858642578,-0.06658431142568588
1684594532469386800,12.42738671875,0.1996002197265625,0.18570303916931152,-0.17516560852527618
1684594532486259700,12.444259765625,0.18448130786418915,0.20952677726745605,-0.13790282607078552
1684594532503132700,12.461132568359375,0.15363261103630066,0.1362229436635971,-0.046731192618608475
1684594532520005000,12.478005126953125,0.17501288652420044,0.10155634582042694,-0.03787364438176155
1684594532536877800,12.4948779296875,0.22892175614833832,0.14614951610565186,-0.08414668589830399
1684594532553750500,12.51175048828125,0.26969701051712036,0.25045475363731384,-0.13607023656368256
1684594532570621700,12.52862158203125,0.28038713335990906,0.37491855025291443,-0.18188512325286865
1684594532587498500,12.54549853515625,0.27320948243141174,0.43050727248191833,-0.23625212907791138
1684594532604369200,12.562369140625,0.26221391558647156,0.4179845452308655,-0.2756529450416565
1684594532621242000,12.5792421875,0.2551889419555664,0.40103304386138916,-0.28206703066825867
1684594532638115000,12.596114990234375,0.256868839263916,0.4444044530391693,-0.24373523890972137
1684594532654987300,12.6129873046875,0.2603813111782074,0.4537201523780823,-0.2028072625398636
1684594532671860200,12.629860107421875,0.26282477378845215,0.41951170563697815,-0.18585574626922607
1684594532688733400,12.6467333984375,0.24633140861988068,0.38866302371025085,-0.19456058740615845
1684594532705606100,12.663606201171875,0.22052235901355743,0.39874228835105896,-0.23579397797584534
1684594532722478600,12.680478515625,0.21013765037059784,0.5450445413589478,-0.2964223623275757
1684594532739351800,12.697351806640626,0.204487144947052,0.7363980412483215,-0.3430008292198181
1684594532756224300,12.714224365234376,0.19058994948863983,0.8150469660758972,-0.35643985867500305
1684594532773086700,12.731086669921876,0.17592918872833252,0.7096726894378662,-0.3419318199157715
1684594532789970000,12.747969970703124,0.1719585657119751,0.4938845634460449,-0.30253100395202637
1684594532806843000,12.7648427734375,0.1992947906255722,0.29336804151535034,-0.2496911734342575
1684594532823715300,12.78171533203125,0.25931230187416077,0.23900102078914642,-0.2025018334388733
1684594532840588800,12.7985888671875,0.3130684494972229,0.432645320892334,-0.17348572611808777
1684594532857460500,12.81546044921875,0.27748554944992065,0.7049384713172913,-0.14508049190044403
1684594532874334200,12.832334228515625,0.11026117950677872,0.7492262125015259,-0.12492194026708603
1684594532891207000,12.84920703125,-0.10399980843067169,0.5552765130996704,-0.09040805697441101
1684594532908079900,12.866079833984376,-0.23228150606155396,0.17409659922122955,-0.03130684420466423
1684594532924940000,12.88293994140625,-0.2422080636024475,-0.24663683772087097,0.029474247246980667
1684594532941813800,12.899813720703126,-0.19074267148971558,-0.5085453391075134,0.11224649101495743
1684594532958700300,12.9167001953125,-0.13500121235847473,-0.6656904220581055,0.19104810059070587
1684594532975571200,12.9335712890625,-0.08689557760953903,-0.722959041595459,0.2561052441596985
1684594532992443600,12.950443603515625,-0.06536258012056351,-0.7111998796463013,0.2942843437194824
1684594533009316400,12.96731640625,-0.10293079167604446,-0.7292203903198242,0.2793181240558624
1684594533026189300,12.984189208984375,-0.17928895354270935,-0.6621779203414917,0.2154827117919922
1684594533043062300,13.001062255859376,-0.2513710558414459,-0.39935314655303955,0.12965615093708038
1684594533059934700,13.017934814453126,-0.3614795207977295,-0.10170906037092209,0.054825156927108765
1684594533076807400,13.034807373046876,-0.5254968404769897,0.08277224004268646,0.06551529467105865
1684594533093680600,13.0516806640625,-0.6614143252372742,-0.010231993161141872,0.10965031385421753
1684594533110553600,13.0685537109375,-0.6495024561882019,-0.23273965716362,0.07742717117071152
1684594533127409400,13.085409423828125,-0.504574716091156,-0.3423899710178375,0.08261952549219131
1684594533144298800,13.102298828125,-0.35735616087913513,-0.3825543522834778,0.22892175614833832
1684594533161171700,13.119171630859375,-0.3078760802745819,-0.4834998548030853,0.4082106947898865
1684594533178044700,13.136044677734375,-0.30146199464797974,-0.5357288122177124,0.4905247986316681
1684594533194916900,13.152916748046875,-0.2854267954826355,-0.5093088746070862,0.4576907753944397
1684594533211790000,13.1697900390625,-0.2451096773147583,-0.43646320700645447,0.4017966091632843
1684594533228662500,13.18666259765625,-0.1820378452539444,-0.43539419770240784,0.3747658133506775
1684594533245535700,13.20353564453125,-0.09376781433820724,-0.46364670991897583,0.37201693654060364
1684594533262408200,13.220408203125,0.017867809161543846,-0.4095851480960846,0.3732386529445648
1684594533279281200,13.23728125,0.10002918541431427,-0.3536909818649292,0.3675881624221802
1684594533296153900,13.25415380859375,0.11041389405727386,-0.4254676401615143,0.38606682419776917
1684594533313027000,13.271027099609375,0.07880161702632904,-0.5638286471366882,0.4259257912635803
1684594533329899500,13.2878994140625,0.06673702597618103,-0.5878050923347473,0.399200439453125
1684594533346772500,13.3047724609375,0.08720101416110992,-0.3712533414363861,0.2941316068172455
1684594533363645200,13.321645263671876,0.11514809727668762,-0.06200282275676727,0.1394299864768982
1684594533380518700,13.3385185546875,0.11835514008998871,0.20463985204696655,-0.032528575509786606
1684594533397391600,13.3553916015625,0.09987647086381912,0.3507893681526184,-0.18799377977848053
1684594533414262800,13.3722626953125,0.07925976812839508,0.4291328489780426,-0.26481008529663086
1684594533431136500,13.389136474609375,0.04932736977934837,0.3576616048812866,-0.23258693516254425
1684594533448009500,13.406009521484375,0.020005837082862854,0.18860463798046112,-0.11545353382825851
1684594533464881700,13.422881591796875,0.028099801391363144,0.15974126756191254,-0.01771509274840355
1684594533481744400,13.439744384765625,0.07620543986558914,0.28359419107437134,-0.02474004216492176
1684594533498627600,13.456627685546875,0.1339322030544281,0.493731826543808,-0.1459967941045761
1684594533515500500,13.47350048828125,0.1592831164598465,0.7281513810157776,-0.28557950258255005
1684594533532373000,13.490373046875,0.12278391420841217,0.8022187948226929,-0.3572034537792206
1684594533549246200,13.50724609375,0.07070764899253845,0.6846272349357605,-0.35552358627319336
1684594533566118700,13.52411865234375,0.09697485715150833,0.5291619896888733,-0.31551191210746765
1684594533582992000,13.540991943359375,0.21960605680942535,0.44135013222694397,-0.2799290120601654
1684594533599864600,13.557864501953125,0.3507893681526184,0.4027129113674164,-0.23289237916469574
1684594533616737500,13.574737548828125,0.40362921357154846,0.39538252353668213,-0.17791450023651123
1684594533633610000,13.59160986328125,0.36224308609962463,0.4190535545349121,-0.152105450630188
1684594533650483200,13.608483154296875,0.2768746614456177,0.42042800784111023,-0.1846340149641037
1684594533667355100,13.625355224609375,0.22678372263908386,0.4196644127368927,-0.22602014243602753
1684594533684228600,13.642228515625,0.24984388053417206,0.40454551577568054,-0.2246456891298294
1684594533701101300,13.659101318359374,0.3010038435459137,0.384845107793808,-0.1846340149641037
1684594533717974300,13.675974365234374,0.3222314119338989,0.37522396445274353,-0.1547016203403473
1684594533734846700,13.6928466796875,0.30314189195632935,0.39813143014907837,-0.1547016203403473
1684594533751720000,13.709719970703125,0.25992316007614136,0.49525898694992065,-0.17852537333965302
1684594533768592600,13.726592529296875,0.1966986060142517,0.588874101638794,-0.22479841113090515
1684594533785465600,13.743465576171875,0.1316414624452591,0.5861251950263977,-0.2857322096824646
1684594533802337800,13.760337890625,0.0835358202457428,0.5102251768112183,-0.3191770911216736
1684594533819200300,13.7772001953125,0.04505131021142006,0.3988949954509735,-0.2597704529762268
1684594533836083700,13.794083740234376,-0.024129176512360573,0.16691893339157104,-0.11499538272619247
1684594533852957000,13.81095703125,-0.12064588814973831,-0.13271047174930573,0.04260785132646561
1684594533869829400,13.827829345703124,-0.20372356474399567,-0.35552358627319336,0.1563815027475357
1684594533886702300,13.844702392578125,-0.2893974184989929,-0.5108360648155212,0.266642689704895
1684594533903575000,13.861574951171875,-0.3689626157283783,-0.6380487680435181,0.3718642294406891
1684594533920447700,13.87844775390625,-0.39874228835105896,-0.6925684809684753,0.4080579876899719
1684594533937320400,13.895320556640625,-0.36819902062416077,-0.6223189830780029,0.3549126982688904
1684594533954193700,13.912193603515625,-0.31520646810531616,-0.4599815309047699,0.24113905429840088
1684594533971066400,13.92906640625,-0.29856038093566895,-0.2915354371070862,0.13561208546161652
1684594533987939300,13.945939208984376,-0.3497203588485718,-0.22937989234924316,0.08002334833145142
1684594534004811500,13.9628115234375,-0.4105014503002167,-0.27061331272125244,0.04444044828414917
1684594534021679000,13.97967919921875,-0.4112650156021118,-0.2480112910270691,0.010079276748001575
1684594534038557400,13.996557373046874,-0.3588833212852478,-0.17669276893138885,0.0012217304902151227
1684594534051420700,14.009420654296875,-0.34345898032188416,-0.23777928948402405,0.07452555745840073
1684594534068086800,14.026086669921876,-0.39675697684288025,-0.46379944682121277,0.24633140861988068
1684594534084958700,14.042958740234376,-0.4375322461128235,-0.6890559792518616,0.40744712948799133
1684594534101821700,14.05982177734375,-0.385303258895874,-0.7115052938461304,0.403323769569397
1684594534118704000,14.0767041015625,-0.2987131178379059,-0.5951354503631592,0.3396410644054413
1684594534135578000,14.093578125,-0.2249511331319809,-0.484416127204895,0.303600013256073
1684594534152449800,14.11044970703125,-0.1411098688840866,-0.41263946890830994,0.30695977807044983
1684594534169323500,14.127323486328125,-0.018478672951459885,-0.3568980097770691,0.27122417092323303
1684594534186195500,14.144195556640625,0.11988230794668198,-0.28649580478668213,0.192422553896904
1684594534203069400,14.1610693359375,0.24083362519741058,-0.24190263450145721,0.09254608303308487
1684594534219941000,14.177941162109375,0.327729195356369,-0.2742784917354584,0.022907447069883347
1684594534236814800,14.19481494140625,0.3827070891857147,-0.35903605818748474,0.023518312722444534
1684594534253686800,14.211686767578126,0.3914119005203247,-0.39553526043891907,0.09224065393209457
1684594534270560500,14.228560546875,0.3727805018424988,-0.30573806166648865,0.12629638612270355
1684594534287432400,14.245432373046874,0.3520110845565796,-0.058948494493961334,0.06688974797725677
1684594534304306200,14.26230615234375,0.3061962127685547,0.28237244486808777,-0.06887505948543549
1684594534321177900,14.279177734375,0.1892155110836029,0.3781255781650543,-0.15332718193531036
1684594534338051800,14.2960517578125,0.08307767659425735,0.31093040108680725,-0.1647808998823166
1684594534354930200,14.31293017578125,0.05054909735918045,0.2658790946006775,-0.16737708449363708
1684594534371797500,14.329797607421876,0.06261368840932846,0.2768746614456177,-0.16325373947620392
1684594534388669200,14.346669189453126,0.1111774742603302,0.20830504596233368,-0.19715675711631775
1684594534405543200,14.363543212890624,0.19608774781227112,0.28069257736206055,-0.22678372263908386
1684594534422414800,14.380414794921874,0.29336804151535034,0.46700647473335266,-0.2912299931049347
1684594534439288600,14.39728857421875,0.3191770911216736,0.6430884003639221,-0.33200526237487793
1684594534456160500,14.414160400390625,0.2704605758190155,0.6809620261192322,-0.3520110845565796
1684594534473034200,14.4310341796875,0.19562959671020508,0.6290385127067566,-0.3597996234893799
1684594534489906200,14.44790625,0.1408044397830963,0.531147301197052,-0.3425426781177521
1684594534506780000,14.46477978515625,0.14309518039226532,0.39996400475502014,-0.3225368559360504
1684594534523652000,14.481652099609375,0.22021691501140594,0.34513887763023376,-0.32162055373191833
1684594534540525300,14.498525390625,0.34055736660957336,0.4095851480960846,-0.3628539443016052
1684594534557397000,14.51539697265625,0.42302417755126953,0.5331326723098755,-0.41630467772483826
1684594534574271200,14.532271240234374,0.38438695669174194,0.6369797587394714,-0.4259257912635803
1684594534591143000,14.549142822265624,0.2194533348083496,0.6922630667686462,-0.3553708493709564
1684594534608016600,14.5660166015625,0.013744467869400978,0.6313292384147644,-0.23976461589336395
1684594534624888800,14.582888916015625,-0.13759739696979523,0.4335615932941437,-0.12217304855585098
1684594534641752300,14.59975244140625,-0.18570303916931152,0.21319197118282318,-0.03420845419168472
1684594534658634200,14.61663427734375,-0.13866640627384186,0.1391245573759079,0.027641652151942253
1684594534675508000,14.633508056640625,-0.09544769674539566,-0.03084869496524334,0.01878410577774048
1684594534692380000,14.6503798828125,-0.11682797968387604,-0.28588494658470154,0.02367102913558483
1684594534709243100,14.6672431640625,-0.1797471046447754,-0.5001459121704102,0.08796459436416626
1684594534726125600,14.68412548828125,-0.24434609711170197,-0.637132465839386,0.16982053220272064
1684594534742999300,14.700999267578124,-0.28206703066825867,-0.6940956115722656,0.22876903414726257
1684594534759871000,14.71787109375,-0.30741792917251587,-0.6640105247497559,0.29886582493782043
1684594534776745000,14.734744873046875,-0.3332269787788391,-0.6672175526618958,0.3523165285587311
1684594534793616600,14.75161669921875,-0.337503045797348,-0.7157813310623169,0.3257438838481903
1684594534810490400,14.768490478515625,-0.30695977807044983,-0.7136433124542236,0.22250767052173615
1684594534827362300,14.7853623046875,-0.2588541507720947,-0.5858197808265686,0.12629638612270355
1684594534844236500,14.802236572265626,-0.21410827338695526,-0.37110063433647156,0.1036943718791008
1684594534861107700,14.819107666015626,-0.20326541364192963,-0.21410827338695526,0.14233160018920898
1684594534877981700,14.835981689453124,-0.2528982162475586,-0.36331209540367126,0.18631389737129211
1684594534894853600,14.852853515625,-0.2845104932785034,-0.7712173461914062,0.19486601650714874
1684594534911727400,14.869727294921875,-0.23365595936775208,-0.9543242454528809,0.20693060755729675
1684594534928599000,14.88659912109375,-0.18707747757434845,-0.8388707041740417,0.32070425152778625
1684594534945470700,14.903470703125,-0.18585574626922607,-0.6487388610839844,0.47937649488449097
1684594534962347300,14.92034716796875,-0.19120082259178162,-0.5586362481117249,0.5419901609420776
1684594534979218400,14.937218505859375,-0.17287486791610718,-0.5571091175079346,0.46792277693748474
1684594534996090400,14.95409033203125,-0.12721268832683563,-0.5326744914054871,0.34697145223617554
1684594535012964400,14.97096435546875,-0.07757988572120667,-0.48976120352745056,0.25564709305763245
1684594535029836000,14.9878359375,-0.0354301854968071,-0.3517056703567505,0.16783522069454193
1684594535046709800,15.004709716796874,0.012064588256180286,-0.22510384023189545,0.07757988572120667
1684594535063582000,15.02158203125,0.058795779943466187,-0.08888089656829834,0.043676864355802536
1684594535080455400,15.038455322265625,0.11194105446338654,-0.10094548016786575,0.022907447069883347
1684594535097327000,15.0553271484375,0.14645494520664215,-0.06994406878948212,0.018020525574684143
1684594535114201000,15.072201171875,0.11468994617462158,-0.0012217304902151227,0.021074850112199783
1684594535131073000,15.089072998046875,0.04184427112340927,0.07757988572120667,0.00931569468230009
1684594535147946800,15.10594677734375,0.01710422709584236,0.21502456068992615,-0.07009678333997726
1684594535164819000,15.12281884765625,0.046273041516542435,0.39996400475502014,-0.16508632898330688
1684594535181683200,15.13968310546875,0.11316278576850891,0.5146539807319641,-0.2561052441596985
1684594535198564000,15.156564208984374,0.1817324161529541,0.5117523670196533,-0.30634891986846924
1684594535215438000,15.17343798828125,0.23228150606155396,0.4300491213798523,-0.2857322096824646
1684594535232309800,15.190309814453125,0.2672535479068756,0.3781255781650543,-0.2171625941991806
1684594535249183700,15.207183837890625,0.28649580478668213,0.3376557528972626,-0.16539175808429718
1684594535266055400,15.224055419921875,0.29397889971733093,0.31031954288482666,-0.164170041680336
1684594535282929400,15.240929443359375,0.29917123913764954,0.33948835730552673,-0.1944078654050827
1684594535299798300,15.25779833984375,0.3149010241031647,0.42928555607795715,-0.22739458084106445
1684594535316677400,15.274677490234374,0.3323107063770294,0.5076290369033813,-0.24342979490756989
1684594535333546800,15.291546630859376,0.33460143208503723,0.5158756971359253,-0.23976461589336395
1684594535350420500,15.30842041015625,0.32498031854629517,0.4674646258354187,-0.2200642079114914
1684594535367292400,15.32529248046875,0.3136793076992035,0.40072759985923767,-0.19028452038764954
1684594535384166400,15.34216650390625,0.3179553747177124,0.3634648323059082,-0.17516560852527618
1684594535401028400,15.3590283203125,0.3510948121547699,0.4245513379573822,-0.21090123057365417
1684594535417911800,15.375911865234375,0.39217549562454224,0.5422956347465515,-0.29856038093566895
1684594535434783500,15.392783447265625,0.4213443100452423,0.683863639831543,-0.39385536313056946
1684594535451657500,15.409657470703126,0.418748140335083,0.8174903988838196,-0.45326200127601624
1684594535468529400,15.426529296875,0.35750889778137207,0.8938485980033875,-0.43875396251678467
1684594535485403100,15.443403076171874,0.22831088304519653,0.8436049222946167,-0.3568980097770691
1684594535502275000,15.460275146484374,0.06612616032361984,0.6582072973251343,-0.26221391558647156
1684594535519148500,15.4771484375,-0.06200282275676727,0.4398229718208313,-0.1992947906255722
1684594535536020500,15.4940205078125,-0.10552696883678436,0.2874121069908142,-0.1869247704744339
1684594535552894200,15.510894287109375,-0.08017606288194656,0.20570887625217438,-0.19364428520202637
1684594535569766100,15.52776611328125,-0.07971791177988052,0.18738290667533875,-0.11545353382825851
1684594535586640000,15.544639892578125,-0.1635591685771942,0.09605856239795685,0.040622539818286896
1684594535603511800,15.56151171875,-0.2929098904132843,-0.17730364203453064,0.1472185254096985
1684594535620385500,15.578385498046876,-0.417679101228714,-0.4931209683418274,0.20204368233680725
1684594535637254700,15.595254638671875,-0.5151121020317078,-0.7432702779769897,0.260992169380188
1684594535654134000,15.612134033203125,-0.5445863604545593,-0.8681922554969788,0.3225368559360504
1684594535671003000,15.6290029296875,-0.4818199574947357,-0.7950411438941956,0.36224308609962463
1684594535687876900,15.645876953125,-0.36392298340797424,-0.566730260848999,0.36300668120384216
1684594535704748800,15.662748779296875,-0.24572055041790009,-0.4014911949634552,0.27030786871910095
1684594535721614000,15.679614013671875,-0.16600263118743896,-0.34574973583221436,0.13469578325748444
1684594535738494200,15.696494140625,-0.1336267739534378,-0.3700316250324249,0.03329215571284294
1684594535755368000,15.713367919921875,-0.1589776873588562,-0.4657847583293915,0.036651913076639175
1684594535772240000,15.730239990234375,-0.20051652193069458,-0.6604980230331421,0.14416420459747314
1684594535789113900,15.74711376953125,-0.19898934662342072,-0.7672467231750488,0.32162055373191833
1684594535805985500,15.763985595703126,-0.16859880089759827,-0.7513642311096191,0.4027129113674164
1684594535822859500,15.780859619140625,-0.15302173793315887,-0.6114761233329773,0.3654501438140869
1684594535839731000,15.79773095703125,-0.17272214591503143,-0.32620203495025635,0.2811507284641266
1684594535856605000,15.81460498046875,-0.23869559168815613,-0.12538009881973267,0.242513507604599
1684594535873476600,15.8314765625,-0.29535335302352905,-0.24083362519741058,0.27259862422943115
1684594535890350600,15.8483505859375,-0.29306259751319885,-0.46929723024368286,0.3448334336280823
1684594535907222300,15.86522216796875,-0.23579397797584534,-0.618195652961731,0.3995058834552765
1684594535924096500,15.882096435546876,-0.12461651116609573,-0.6224716901779175,0.3810271918773651
1684594535940968000,15.898968017578126,-0.01725694350898266,-0.5658139586448669,0.36193767189979553
1684594535957842000,15.915842041015624,0.031154127791523933,-0.531147301197052,0.39996400475502014
1684594535974713600,15.932713623046874,0.07452555745840073,-0.49846604466438293,0.39064833521842957
1684594535991587300,15.94958740234375,0.12140946835279465,-0.32620203495025635,0.2900082767009735
1684594536008459300,15.966459228515625,0.0959058403968811,-0.14095716178417206,0.14446963369846344
1684594536025333200,15.983333251953125,-0.027183502912521362,-0.047800205647945404,0.04657847434282303
1684594536042205000,16.000204833984377,-0.1511891484260559,-0.04337143152952194,-0.03894266113638878
1684594536059078700,16.01707861328125,-0.23182335495948792,0.005650503560900688,-0.06169738993048668
1684594536075950600,16.03395068359375,-0.29565876722335815,0.058948494493961334,0.005650503560900688
1684594536092822500,16.050822509765624,-0.3321579694747925,0.08765916526317596,0.09346238523721695
1684594536109693700,16.067693603515625,-0.3274237811565399,0.08979719132184982,0.13607023656368256
1684594536126566400,16.08456640625,-0.28496864438056946,0.0734565481543541,0.10506882518529892
1684594536143444000,16.10144384765625,-0.2093740701675415,0.09758572280406952,0.010690141469240189
1684594536160315400,16.1183154296875,-0.12247848510742188,0.2649627923965454,-0.07788532227277756
1684594536177183000,16.135182861328126,-0.054825156927108765,0.4951062798500061,-0.12476922571659088
1684594536194065700,16.152065673828126,-0.012828170321881771,0.5737552046775818,-0.1814269721508026
1684594536210933000,16.16893310546875,0.012522737495601177,0.4488332271575928,-0.21762074530124664
1684594536227807000,16.185806884765626,0.03390302136540413,0.17470745742321014,-0.14553864300251007
1684594536244678700,16.2026787109375,0.09239336848258972,-0.07757988572120667,0.015118914656341076
1684594536261552400,16.219552490234374,0.18784105777740479,-0.13041973114013672,0.1264491081237793
1684594536278424300,16.23642431640625,0.2785545587539673,-0.058337632566690445,0.128434419631958
1684594536295298000,16.253298095703126,0.34025195240974426,-0.024129176512360573,0.06230825558304787
1684594536312170000,16.270169921875,0.36911532282829285,-0.01771509274840355,-0.012522737495601177
1684594536329043500,16.28704345703125,0.39446622133255005,0.06444628536701202,-0.09147707372903824
1684594536345915600,16.30391552734375,0.44593164324760437,0.22571471333503723,-0.18310685455799103
1684594536362789600,16.32078955078125,0.4648684561252594,0.4046982228755951,-0.22082778811454773
1684594536379661000,16.3376611328125,0.3920227587223053,0.4715879559516907,-0.1713477075099945
1684594536396535000,16.35453515625,0.2454151064157486,0.38469240069389343,-0.13271047174930573
1684594536413406700,16.37140673828125,0.13179416954517365,0.3066543638706207,-0.1713477075099945
1684594536430280400,16.388280517578124,0.12492194026708603,0.3937026560306549,-0.22113321721553802
1684594536447152600,16.405152587890626,0.17730364203453064,0.5006040930747986,-0.22067506611347198
1684594536464026400,16.4220263671875,0.2301434874534607,0.5532912015914917,-0.19654589891433716
1684594536480898000,16.43889794921875,0.24816401302814484,0.5714644193649292,-0.1963931769132614
1684594536497771800,16.455771728515625,0.23640485107898712,0.5693264007568359,-0.23289237916469574
1684594536514643700,16.472643798828123,0.20845776796340942,0.5453499555587769,-0.25992316007614136
1684594536531517700,16.489517578125,0.1915062516927719,0.5199990272521973,-0.23197607696056366
1684594536548389000,16.50638916015625,0.2102903574705124,0.48869219422340393,-0.18860463798046112
1684594536565263400,16.523263427734374,0.25854870676994324,0.451582133769989,-0.1889100819826126
1684594536582135000,16.540135009765624,0.299018532037735,0.41828998923301697,-0.21395555138587952
1684594536599008800,16.5570087890625,0.30314189195632935,0.40973785519599915,-0.204487144947052
1684594536615880400,16.57388037109375,0.26542094349861145,0.3770565688610077,-0.16539175808429718
1684594536632754200,16.590754150390627,0.20922134816646576,0.31031954288482666,-0.13271047174930573
1684594536649626000,16.607626220703125,0.16035212576389313,0.23976461589336395,-0.13408492505550385
1684594536666499800,16.624499755859375,0.1417207419872284,0.20372356474399567,-0.1635591685771942
1684594536683371300,16.641371337890625,0.1670716404914856,0.23945917189121246,-0.20723603665828705
1684594536700246000,16.65824609375,0.21868975460529327,0.3686571717262268,-0.252287358045578
1684594536717117200,16.6751171875,0.22403483092784882,0.4873177409172058,-0.27458393573760986
1684594536733991200,16.6919912109375,0.12919799983501434,0.4938845634460449,-0.25244006514549255
1684594536750863000,16.708863037109374,-0.015882495790719986,0.41202861070632935,-0.17760907113552094
1684594536767736800,16.72573681640625,-0.128434419631958,0.24617868661880493,-0.06398813426494598
1684594536784608500,16.7426083984375,-0.16752979159355164,0.1062905490398407,0.02535090781748295
1684594536801484000,16.759484130859374,-0.15851953625679016,0.05971207842230797,0.07422012835741043
1684594536818354000,16.77635400390625,-0.16584990918636322,0.029016099870204926,0.1160643994808197
1684594536835228000,16.793227783203125,-0.20570887625217438,-0.06704246252775192,0.13607023656368256
1684594536852099800,16.810099853515624,-0.25824329257011414,-0.1511891484260559,0.128434419631958
1684594536868973600,16.8269736328125,-0.3020728528499603,-0.12324206531047821,0.1498146951198578
1684594536885834800,16.843834716796874,-0.34345898032188416,-0.12400564551353455,0.22861631214618683
1684594536902719500,16.860719482421874,-0.355981707572937,-0.19058994948863983,0.3094032406806946
1684594536919591000,16.8775908203125,-0.313373863697052,-0.22052235901355743,0.31810808181762695
1684594536936465000,16.89446484375,-0.2515237629413605,-0.23075434565544128,0.25473082065582275
1684594536953336600,16.911336669921877,-0.21670444309711456,-0.28069257736206055,0.20326541364192963
1684594536970210600,16.92821044921875,-0.21319197118282318,-0.41401392221450806,0.2275473028421402
1684594536987079700,16.94507958984375,-0.19394971430301666,-0.52702397108078,0.28909197449684143
1684594537003958800,16.961958740234376,-0.1661553531885147,-0.5453499555587769,0.3292563557624817
1684594537020827600,16.97882763671875,-0.17638733983039856,-0.5630650520324707,0.3448334336280823
1684594537037701600,16.99570166015625,-0.20784689486026764,-0.608727216720581,0.33047810196876526
1684594537054573600,17.012573486328126,-0.22342395782470703,-0.612850546836853,0.2974913716316223
1684594537071447300,17.029447265625,-0.21639901399612427,-0.5057964324951172,0.27870726585388184
1684594537088319200,17.0463193359375,-0.21410827338695526,-0.37751471996307373,0.29535335302352905
1684594537105188900,17.06318896484375,-0.2295326143503189,-0.34758231043815613,0.3367394804954529
1684594537122065000,17.08006494140625,-0.24113905429840088,-0.38606682419776917,0.34865134954452515
1684594537138938600,17.096938720703125,-0.2243402600288391,-0.39965859055519104,0.29794952273368835
1684594537155810600,17.113810546875,-0.16401731967926025,-0.26710084080696106,0.21120665967464447
1684594537172681700,17.130681640625,-0.1007927656173706,-0.11636982858181,0.10903944820165634
1684594537189558800,17.147558837890625,-0.11682797968387604,-0.13225232064723969,0.08857546001672745
1684594537206430000,17.164429931640626,-0.19349156320095062,-0.2402227520942688,0.14706580340862274
1684594537223301600,17.181301513671876,-0.25106561183929443,-0.2874121069908142,0.19517144560813904
1684594537240175400,17.19817529296875,-0.26542094349861145,-0.23273965716362,0.20525072515010834
1684594537257047300,17.21504736328125,-0.2532036304473877,-0.12721268832683563,0.18417587876319885
1684594537273921000,17.231921142578123,-0.20601430535316467,-0.10491610318422318,0.09758572280406952
1684594537290793000,17.24879296875,-0.14752395451068878,-0.16661348938941956,0.02519819140434265
1684594537307666700,17.265666748046876,-0.10934487730264664,-0.22296582162380219,0.04108068719506264
1684594537324538600,17.28253857421875,-0.08827003091573715,-0.15347988903522491,0.09422596544027328
1684594537341419300,17.299419189453126,-0.09560041129589081,-0.029474247246980667,0.07971791177988052
1684594537358275800,17.31627587890625,-0.12538009881973267,0.027947084978222847,0.005803219974040985
1684594537375158000,17.333157958984376,-0.13316862285137177,0.11194105446338654,-0.046731192618608475
1684594537392029400,17.350029541015626,-0.11423180252313614,0.19944749772548676,-0.06352998316287994
1684594537408903700,17.366903564453125,-0.06673702597618103,0.2165517359972,-0.06918048858642578
1684594537425774000,17.383774169921875,0.020463986322283745,0.18188512325286865,-0.07513642311096191
1684594537442651000,17.40065087890625,0.11591167747974396,0.06291911751031876,-0.05451972410082817
1684594537459520800,17.417520751953123,0.19883663952350616,-0.07177666574716568,-0.004123340360820293
1684594537476394800,17.434394775390626,0.2860376536846161,-0.07742717117071152,0.012675453908741474
1684594537493266400,17.451266357421876,0.3663664162158966,-0.06688974797725677,-0.044745877385139465
1684594537510140400,17.468140380859374,0.41951170563697815,-0.09178250283002853,-0.11468994617462158
1684594537527012000,17.48501220703125,0.43875396251678467,-0.09529497474431992,-0.14095716178417206
1684594537543886000,17.501885986328126,0.42210787534713745,0.010842857882380486,-0.14645494520664215
1684594537560757800,17.5187578125,0.35934147238731384,0.1866193264722824,-0.16249015927314758
1684594537577629200,17.535629150390626,0.25992316007614136,0.3179553747177124,-0.20601430535316467
1684594537594506000,17.552506103515626,0.1696678251028061,0.3747658133506775,-0.26419922709465027
1684594537611377200,17.569377197265624,0.1293507218360901,0.37659841775894165,-0.28008171916007996
1684594537628249000,17.5862490234375,0.14706580340862274,0.3168863356113434,-0.23396138846874237
1684594537645122800,17.603122802734376,0.20784689486026764,0.28909197449684143,-0.1817324161529541
1684594537661994800,17.619994873046874,0.260992169380188,0.35323283076286316,-0.18387043476104736
1684594537678865700,17.63686572265625,0.26450464129447937,0.45952337980270386,-0.24419337511062622
1684594537695743000,17.653742919921875,0.21441370248794556,0.5558874011039734,-0.30222558975219727
1684594537712614000,17.67061376953125,0.14477506279945374,0.6241515874862671,-0.3020728528499603
1684594537729485800,17.68748583984375,0.10445795953273773,0.6026185750961304,-0.270766019821167
1684594537746359800,17.70435986328125,0.12339477986097336,0.48976120352745056,-0.25641068816185
1684594537763231700,17.721231689453123,0.1966986060142517,0.32268956303596497,-0.26313021779060364
1684594537780105200,17.738105224609374,0.29535335302352905,0.1963931769132614,-0.2571742534637451
1684594537796977200,17.75497705078125,0.37751471996307373,0.21090123057365417,-0.23518311977386475
1684594537813851000,17.771850830078126,0.40424007177352905,0.3407101035118103,-0.22113321721553802
1684594537830722800,17.788722900390624,0.34162637591362,0.4331034719944,-0.22403483092784882
1684594537847596500,17.805596435546875,0.2151772826910019,0.4150829315185547,-0.22770002484321594
1684594537864468200,17.82246826171875,0.11407908797264099,0.29046642780303955,-0.21059578657150269
1684594537881342000,17.839342041015627,0.11423180252313614,0.08491026610136032,-0.16783522069454193
1684594537898203400,17.856203369140626,0.19089539349079132,-0.08277224004268646,-0.10965031385421753
1684594537915087600,17.873087646484375,0.27488934993743896,-0.10155634582042694,-0.05772676691412926
1684594537931959300,17.889959228515625,0.3045163154602051,0.01237002108246088,-0.03451388701796532
1684594537948833300,17.906833251953124,0.23655757308006287,0.1495092660188675,-0.05192354694008827
1684594537965705000,17.923705078125,0.0780380368232727,0.18738290667533875,-0.07895433157682419
1684594537982579200,17.9405791015625,-0.07666359096765518,0.06215553730726242,-0.10476338863372803
1684594537999450600,17.95745068359375,-0.14553864300251007,-0.14187344908714294,-0.09651670604944229
1684594538016324400,17.974324462890625,-0.16523905098438263,-0.3223841190338135,-0.02733621932566166
1684594538033196300,17.9911962890625,-0.20204368233680725,-0.39935314655303955,0.09315694868564606
1684594538050070300,18.0080703125,-0.2669481039047241,-0.3833179473876953,0.1794416606426239
1684594538066942000,18.02494189453125,-0.3568980097770691,-0.256868839263916,0.19883663952350616
1684594538083816000,18.04181591796875,-0.46502116322517395,-0.12202033400535583,0.18341228365898132
1684594538100687400,18.058687255859375,-0.5528330206871033,-0.023365596309304237,0.17730364203453064
1684594538117558800,18.075558837890625,-0.5685628056526184,-0.01542434748262167,0.1719585657119751
1684594538134435600,18.092435546875,-0.48945578932762146,-0.08888089656829834,0.1716531366109848
1684594538151292000,18.1092919921875,-0.3549126982688904,-0.21319197118282318,0.19135354459285736
1684594538168178700,18.1261787109375,-0.23167064785957336,-0.3390302062034607,0.22708915174007416
1684594538185052700,18.143052734375,-0.15225815773010254,-0.4092797040939331,0.24205535650253296
1684594538201914400,18.159914306640626,-0.1010981947183609,-0.36453384160995483,0.2324342280626297
1684594538218798000,18.176798095703123,-0.08261952549219131,-0.2724458873271942,0.22678372263908386
1684594538235670000,18.193669921875,-0.11682797968387604,-0.31031954288482666,0.26740625500679016
1684594538252543700,18.210543701171876,-0.17241671681404114,-0.4973970353603363,0.36682456731796265
1684594538269415400,18.22741552734375,-0.19303341209888458,-0.7289149761199951,0.4103487432003021
1684594538286289400,18.244289306640624,-0.14523321390151978,-0.8310821652412415,0.3484986126422882
1684594538303161300,18.261161376953126,-0.06322455406188965,-0.6960809230804443,0.25671613216400146
1684594538320034800,18.278034912109376,0.001527163083665073,-0.4040873646736145,0.17256943881511688
1684594538336906800,18.29490673828125,-0.024129176512360573,-0.25014930963516235,0.14584407210350037
1684594538353780700,18.31178076171875,-0.11957687139511108,-0.2848159074783325,0.18112154304981232
1684594538370652400,18.32865234375,-0.20601430535316467,-0.342695415019989,0.24663683772087097
1684594538387526100,18.345526123046874,-0.2480112910270691,-0.3620903789997101,0.294437050819397
1684594538404387600,18.3623876953125,-0.22571471333503723,-0.3016147017478943,0.2710714638233185
1684594538421272000,18.37927197265625,-0.13209961354732513,-0.10690141469240189,0.14294247329235077
1684594538438143700,18.396143798828124,-0.04566217586398125,0.08552113175392151,-0.013439035043120384
1684594538455017500,18.413017578125,-0.039706241339445114,0.1137736514210701,-0.08796459436416626
1684594538471892500,18.429892578125,-0.11056660860776901,-0.0064140851609408855,-0.05406157299876213
1684594538488759800,18.446759765625,-0.2028072625398636,-0.13377949595451355,0.018936822190880775
1684594538505634800,18.463634765625,-0.2532036304473877,-0.1869247704744339,0.042760565876960754
1684594538522508800,18.4805087890625,-0.2278527319431305,-0.12293662875890732,0.01863138936460018
1684594538532934700,18.4909345703125,-0.1618792861700058,0.8533787727355957,0.5305364727973938
1684594538547811600,18.5058115234375,-0.09941831976175308,0.01725694350898266,0.36789360642433167
1684594538564689700,18.522689697265626,-0.04535674303770065,-0.11759155988693237,0.27870726585388184
1684594538581554000,18.539553955078127,0.0010690141934901476,-0.0754418596625328,0.04245513305068016
1684594538598435300,18.556435302734375,0.010079276748001575,-0.05451972410082817,-0.15042556822299957
1684594538615305200,18.57330517578125,0.018325956538319588,-0.04993823543190956,-0.3217732608318329
1684594538632183600,18.59018359375,0.05665775015950203,0.05268712714314461,-0.5253441333770752
1684594538649054700,18.6070546875,0.06398813426494598,0.40454551577568054,-0.4239404797554016
1684594538665926400,18.623926513671876,0.05604688450694084,0.34895676374435425,-0.14905111491680145
1684594538682799900,18.6407998046875,0.17104226350784302,0.04398229718208313,0.005955935921519995
1684594538699672000,18.657672119140624,0.3562871515750885,-0.09315694868564606,0.02687807008624077
1684594538716545800,18.6745458984375,0.46150869131088257,-0.08506298810243607,0.001832595793530345
1684594538733417700,18.691417724609376,0.45295658707618713,0.01725694350898266,-0.038637228310108185
1684594538750290400,18.70829052734375,0.38866302371025085,0.18066339194774628,-0.11499538272619247
1684594540412253700,20.370253662109373,0.5308418869972229,-0.0679587572813034,-0.10094548016786575
1684594540424906000,20.382906005859375,0.49586987495422363,0.09392052888870239,-0.0705549344420433
1684594540441769000,20.39976904296875,0.3706424832344055,0.27091872692108154,-0.02977968007326126
1684594540458652000,20.41665185546875,0.26572638750076294,0.32818734645843506,-0.10522153973579407
1684594540475525000,20.433525146484374,0.2200642079114914,0.3078760802745819,-0.20112738013267517
1684594540492397300,20.450397216796876,0.2197587788105011,0.23671028017997742,-0.2356412708759308
1684594540509270800,20.467270751953127,0.2629774808883667,0.19685132801532745,-0.23289237916469574
1684594540526143000,20.48414306640625,0.33689218759536743,0.24785856902599335,-0.2347249686717987
1684594540543016400,20.501016357421875,0.3643811047077179,0.3776674270629883,-0.24892759323120117
1684594540559888600,20.517888671875,0.3016147017478943,0.5539020895957947,-0.28695395588874817
1684594540576761900,20.534761962890624,0.16859880089759827,0.6960809230804443,-0.34177911281585693
1684594540593634300,20.55163427734375,0.028405234217643738,0.7562511563301086,-0.3732386529445648
1684594540610507500,20.568507568359376,-0.04657847434282303,0.7625125646591187,-0.3602577745914459
1684594540627379700,20.585379638671874,-0.0328340083360672,0.7063129544258118,-0.3219259977340698
1684594540644253000,20.6022529296875,0.06414084881544113,0.6485861539840698,-0.2785545587539673
1684594540661125400,20.61912548828125,0.2018909603357315,0.6210972666740417,-0.24678955972194672
1684594540677998300,20.635998291015625,0.32268956303596497,0.6053674817085266,-0.23487769067287445
1684594540694870800,20.652870849609375,0.3804163336753845,0.5920811295509338,-0.2269364446401596
1684594540711748000,20.669748046875,0.3608686327934265,0.5690209865570068,-0.2200642079114914
1684594540728616400,20.686616455078124,0.27580565214157104,0.46822822093963623,-0.22892175614833832
1684594540745490000,20.703489990234374,0.1849394589662552,0.355981707572937,-0.21410827338695526
1684594540762361300,20.720361328125,0.14767667651176453,0.2799290120601654,-0.16630806028842926
1684594540779233500,20.737233642578126,0.16462817788124084,0.2119702398777008,-0.14263702929019928
1684594540796109300,20.754109375,0.18829920887947083,0.15806138515472412,-0.1644754707813263
1684594540812981000,20.77098095703125,0.16462817788124084,0.1365283876657486,-0.15745051205158234
1684594540829853200,20.787853271484376,0.04138612002134323,0.08139779418706894,-0.006261368747800589
1684594540846726400,20.804726318359375,-0.15225815773010254,-0.2373211532831192,0.18768835067749023
1684594540863598800,20.821598876953125,-0.2893974184989929,-0.6476698517799377,0.2747366428375244
1684594540880472000,20.83847216796875,-0.31749722361564636,-0.8643743395805359,0.2811507284641266
1684594540897346000,20.855345947265626,-0.2886338233947754,-0.8432994484901428,0.2790127098560333
1684594540914215700,20.872215576171875,-0.26908615231513977,-0.6366742849349976,0.3049744665622711
1684594540931089700,20.889089599609374,-0.3263547718524933,-0.455705463886261,0.3323107063770294
1684594540947963100,20.905963134765624,-0.4499022662639618,-0.3966042697429657,0.31841349601745605
1684594540964824800,20.922824951171876,-0.5671883821487427,-0.427452951669693,0.22876903414726257
1684594540981697800,20.93969775390625,-0.5977316498756409,-0.39706242084503174,0.0913243517279625
1684594540998581200,20.956581298828127,-0.5134322643280029,-0.22678372263908386,0.010842857882380486
1684594541015454200,20.9734541015625,-0.40286561846733093,-0.10934487730264664,0.09743300825357437
1684594541032326400,20.990326416015623,-0.4075998365879059,-0.29886582493782043,0.3510948121547699
1684594541049200000,21.0072001953125,-0.4801400899887085,-0.675006091594696,0.5199990272521973
1684594541066072000,21.024072021484375,-0.44852781295776367,-0.79840087890625,0.499382346868515
1684594541082945500,21.040945556640626,-0.2977968156337738,-0.6259841322898865,0.3634648323059082
1684594541099817700,21.057817626953124,-0.12461651116609573,-0.3962988257408142,0.22052235901355743
1684594541116691000,21.07469091796875,-0.04489859566092491,-0.18157969415187836,0.18600846827030182
1684594541133563400,21.0915634765625,-0.07757988572120667,-0.1837177276611328,0.27030786871910095
1684594541150436600,21.1084365234375,-0.09498954564332962,-0.31352660059928894,0.3243694305419922
1684594541167308800,21.125308837890625,-0.08399397134780884,-0.3764457106590271,0.3582724630832672
1684594541184182300,21.142182373046875,-0.09147707372903824,-0.5210680365562439,0.3689626157283783
1684594541201054500,21.159054443359373,-0.08689557760953903,-0.7875580191612244,0.3263547718524933
1684594541217927700,21.175927734375,-0.022602014243602753,-0.9121745228767395,0.25702154636383057
1684594541234799900,21.1927998046875,0.10064005106687546,-0.5502368807792664,0.2382374405860901
1684594541251673300,21.20967333984375,0.2525927722454071,-0.06368270516395569,0.09666942805051804
1684594541268545500,21.226545654296874,0.3225368559360504,0.20983220636844635,-0.1267545372247696
1684594541285418800,21.243418701171876,0.2854267954826355,0.18356500566005707,-0.2886338233947754
1684594541302291200,21.260291259765626,0.2295326143503189,0.20799961686134338,-0.3139847218990326
1684594541319164400,21.277164306640625,0.20876319706439972,0.3061962127685547,-0.25961771607398987
1684594541336036600,21.29403662109375,0.19593502581119537,0.3533855378627777,-0.18997909128665924
1684594541352910000,21.31091015625,0.14935655891895294,0.3579670190811157,-0.1670716404914856
1684594541369782300,21.3277822265625,0.08796459436416626,0.29825496673583984,-0.197004035115242
1684594541386655500,21.344655517578126,0.09896016865968704,0.33826664090156555,-0.2840523421764374
1684594541403528000,21.36152783203125,0.20723603665828705,0.5227479338645935,-0.38209620118141174
1684594541420401200,21.378401123046874,0.31673362851142883,0.6197227835655212,-0.3880521357059479
1684594541437273000,21.395273193359376,0.35445454716682434,0.566730260848999,-0.327729195356369
1684594541454146600,21.412146484375,0.3219259977340698,0.5050328373908997,-0.2496911734342575
1684594541471018800,21.429018798828125,0.2626720666885376,0.470671683549881,-0.22892175614833832
1684594541487892200,21.445892333984375,0.23060162365436554,0.5056437253952026,-0.28496864438056946
1684594541504764400,21.462764404296873,0.22663100063800812,0.6117815375328064,-0.3156646192073822
1684594541521642200,21.479642333984376,0.2243402600288391,0.6630942225456238,-0.2802344262599945
1684594541538510000,21.496510009765625,0.230448916554451,0.627358615398407,-0.24098633229732513
1684594541555383300,21.51338330078125,0.25366178154945374,0.554818332195282,-0.24129177629947662
1684594541572255500,21.53025537109375,0.29336804151535034,0.4990769028663635,-0.2840523421764374
1684594541589129000,21.54712890625,0.33429601788520813,0.4853324294090271,-0.33292156457901
1684594541606001200,21.564001220703126,0.3306308090686798,0.4193589985370636,-0.35063666105270386
1684594541622874600,21.58087451171875,0.25732699036598206,0.29856038093566895,-0.33307427167892456
1684594541639746800,21.597746826171875,0.15134187042713165,0.16752979159355164,-0.29993483424186707
1684594541656619800,21.614619873046873,0.05849034711718559,0.05268712714314461,-0.25824329257011414
1684594541673492200,21.6314921875,-0.013439035043120384,-0.044135015457868576,-0.17837265133857727
1684594541690365400,21.648365478515625,-0.08521570265293121,-0.11468994617462158,-0.048716504126787186
1684594541707238000,21.66523779296875,-0.17302757501602173,-0.23228150606155396,0.08643743395805359
1684594541724110800,21.68211083984375,-0.25335636734962463,-0.379652738571167,0.14706580340862274
1684594541740983300,21.6989833984375,-0.31673362851142883,-0.4720461070537567,0.14614951610565186
1684594541757844200,21.71584423828125,-0.3816380500793457,-0.5461135506629944,0.14004085958003998
1684594541774731500,21.7327314453125,-0.4567744731903076,-0.6113234162330627,0.1586722433567047
1684594541791602200,21.749602294921875,-0.5462662577629089,-0.6612616181373596,0.22113321721553802
1684594541808474400,21.766474365234377,-0.6363688707351685,-0.6710354685783386,0.30772337317466736
1684594541825345300,21.78334521484375,-0.6850853562355042,-0.6430884003639221,0.34574973583221436
1684594541842222600,21.80022265625,-0.6551529765129089,-0.5960517525672913,0.2971859276294708
1684594541859093500,21.817093505859376,-0.5505422949790955,-0.4954117238521576,0.24663683772087097
1684594541875965700,21.833965576171874,-0.4098905920982361,-0.38240164518356323,0.24358251690864563
1684594541892839000,21.8508388671875,-0.28038713335990906,-0.3723223805427551,0.2243402600288391
1684594541909711000,21.867711181640626,-0.1966986060142517,-0.44486260414123535,0.17302757501602173
1684594541926584300,21.884584228515624,-0.18295414745807648,-0.5375614166259766,0.1849394589662552
1684594541943456500,21.90145654296875,-0.19288070499897003,-0.6125451326370239,0.2828305959701538
1684594541960330000,21.918330078125,-0.19135354459285736,-0.6623306274414062,0.38667771220207214
1684594541977199000,21.93519921875,-0.16279558837413788,-0.6482807397842407,0.4619668424129486
1684594541994078000,21.952077880859374,-0.11301007121801376,-0.5560401082038879,0.4977024495601654
1684594542010947600,21.968947509765623,-0.055283304303884506,-0.39538252353668213,0.48426342010498047
1684594542027821000,21.985821044921874,0.04459316283464432,-0.14019356667995453,0.3594942092895508
1684594542044693200,22.002693359375,0.1560760736465454,0.0754418596625328,0.18906278908252716
1684594542711167700,22.669167724609373,-0.3588833212852478,-0.5728389024734497,0.35094207525253296
1684594542728042000,22.6860419921875,-0.3260493278503418,-0.8666650652885437,0.47021353244781494
1684594542744912000,22.702911865234373,-0.27580565214157104,-1.0380127429962158,0.5453499555587769
1684594542761775600,22.719775634765625,-0.1941024363040924,-1.0112874507904053,0.5099197626113892
1684594542778658800,22.736658935546874,-0.05726861581206322,-0.7405213713645935,0.33307427167892456
1684594542795531800,22.75353173828125,0.049785517156124115,-0.540921151638031,0.13469578325748444
1684594542812404500,22.770404541015626,0.029168816283345222,-0.5606215596199036,0.11255192011594772
1684594542829277700,22.787277587890625,-0.060322944074869156,-0.6146831512451172,0.21181751787662506
1684594542846150000,22.80414990234375,-0.12049316614866257,-0.5511531829833984,0.2822197377681732
1684594542863022800,22.82102294921875,-0.1408044397830963,-0.4524984359741211,0.29764407873153687
1684594542879895600,22.8378955078125,-0.1408044397830963,-0.3874412775039673,0.2733621895313263
1684594542896768500,22.8547685546875,-0.10766500234603882,-0.2955060601234436,0.1768454909324646
1684594542913640700,22.871640625,-0.02229658141732216,-0.06215553730726242,0.029474247246980667
1684594542930514000,22.888513916015626,0.05955936014652252,0.13698652386665344,-0.11636982858181
1684594542947386600,22.90538671875,0.11194105446338654,0.2790127098560333,-0.2603813111782074
1684594542964259600,22.922259521484374,0.1235474944114685,0.3484986126422882,-0.327729195356369
1684594542981132000,22.939132080078124,0.09972374886274338,0.2935207486152649,-0.25763240456581116
1684594542998005000,22.9560048828125,0.08704829961061478,0.08765916526317596,-0.11682797968387604
1684594543014877400,22.97287744140625,0.14340060949325562,0.05757404863834381,-0.013439035043120384
1684594543031750700,22.989750732421875,0.23151792585849762,0.1791362315416336,-0.02535090781748295
1684594543048623000,23.006623046875,0.29046642780303955,0.33246341347694397,-0.11148291081190109
1684594543065496000,23.02349609375,0.2886338233947754,0.4538728892803192,-0.1992947906255722
1684594543082368800,23.04036865234375,0.2431243658065796,0.4951062798500061,-0.2742784917354584
1684594543099241700,23.05724169921875,0.2223549485206604,0.47082439064979553,-0.31413745880126953
1684594543116114000,23.074114013671874,0.25534167885780334,0.33658674359321594,-0.2541199326515198
1684594543132987100,23.090987060546876,0.3381139039993286,0.12171489745378494,-0.1281289905309677
1684594543149859600,23.107859619140626,0.432645320892334,-0.013744467869400978,-0.03787364438176155
1684594543166732500,23.124732666015625,0.48915034532546997,0.06062837690114975,-0.05009094998240471
1684594543183605000,23.14160498046875,0.4521929919719696,0.33658674359321594,-0.1463022232055664
1684594543200467200,23.15846728515625,0.3245221674442291,0.6760751008987427,-0.2571742534637451
1684594543217351000,23.175350830078123,0.14508049190044403,0.9202684760093689,-0.32650747895240784
