time,seconds_elapsed,z,y,x
1684594520156544000,0.1145439453125,1.261742115020752,-2.264019250869751,2.3134994506835938
1684594520173430300,0.13143017578125,1.2516628503799438,-2.2850942611694336,2.406656265258789
1684594520190288100,0.1482880859375,1.4265230894088745,-1.685835361480713,2.230268955230713
1684594520207168500,0.16516845703125,1.6516269445419312,-1.032820463180542,1.9228510856628418
1684594520224047600,0.182047607421875,1.7026340961456299,-0.4308127164840698,1.4892895221710205
1684594520240917000,0.1989169921875,1.6102408170700073,-0.3116939961910248,0.9787588119506836
1684594520257786000,0.2157861328125,1.5497651100158691,-0.9863946437835693,0.7689266204833984
1684594520274664400,0.23266455078125,1.7466164827346802,-1.9909625053405762,0.9063712954521179
1684594520291535400,0.249535400390625,1.982105016708374,-1.9252945184707642,1.3246612548828125
1684594520308406800,0.26640673828125,2.062891960144043,-2.013106346130371,1.7412713766098022
1684594520325279700,0.28327978515625,1.9770653247833252,-3.1699323654174805,2.052507162094116
1684594520342152200,0.300152099609375,1.3530665636062622,-3.472769021987915,1.9465221166610718
1684594520359025700,0.317025634765625,0.2840523421764374,-1.0131200551986694,0.9447031021118164
1684594520375894500,0.33389453125,0.16325373947620392,-0.8101600408554077,0.44715335965156555
1684594520392772600,0.350772705078125,0.8058840036392212,-0.865290641784668,0.1999056488275528
1684594520409642200,0.367642333984375,1.0403034687042236,-1.1846203804016113,0.4717406928539276
1684594520426516000,0.384515869140625,0.755182147026062,-1.2079859972000122,0.6824892163276672
1684594520443377200,0.401377197265625,0.4508185386657715,-0.5170974135398865,0.5665774941444397
1684594520460260400,0.41826025390625,0.45142942667007446,0.608727216720581,0.3142901659011841
1684594520477132500,0.435132568359375,0.6924157738685608,1.6565138101577759,-0.09544769674539566
1684594520494006500,0.452006591796875,0.8941540122032166,0.9395107626914978,-1.4234687089920044
1684594520510867500,0.468867431640625,0.4063780903816223,0.014966198243200779,-3.0925052165985107
1684594520527747800,0.485747802734375,-0.5108360648155212,0.7672467231750488,-4.427703857421875
1684594520544626000,0.5026259765625,-1.1099421977996826,2.1879665851593018,-4.614628791809082
1684594520561498000,0.519498046875,-1.9448422193527222,2.6568057537078857,-2.4585797786712646
1684594520578367200,0.5363671875,-2.5689938068389893,4.396855354309082,0.4662429094314575
1684594520595237000,0.553237060546875,-2.4863743782043457,4.872108459472656,2.352900266647339
1684594520612120600,0.57012060546875,-2.11588454246521,3.607311964035034,3.274695873260498
1684594520628984300,0.586984375,-0.9419541954994202,3.313943862915039,2.545933723449707
1684594520645858800,0.60385888671875,0.6029239892959595,2.4500277042388916,0.4103487432003021
1684594520662731300,0.620731201171875,0.531147301197052,-0.02535090781748295,-0.18799377977848053
1684594520679604200,0.637604248046875,-0.08475755155086517,-0.36331209540367126,-0.8280278444290161
1684594520696477700,0.654477783203125,0.36529740691185,0.8295549750328064,-1.3668110370635986
1684594520713349400,0.671349365234375,0.9198103547096252,1.182176947593689,-0.41828998923301697
1684594520730223600,0.6882236328125,0.7283040881156921,2.6919305324554443,0.4207334518432617
1684594520747092700,0.7050927734375,0.48655417561531067,4.208861351013184,0.7976372838020325
1684594520763968000,0.721968017578125,0.5262604355812073,4.049883842468262,0.8793405294418335
1684594520780839400,0.73883935546875,0.3562871515750885,1.5842790603637695,-0.12522737681865692
1684594520797701600,0.75570166015625,-0.014508049935102463,0.3908010423183441,-0.6272059082984924
1684594520814584800,0.772584716796875,-0.40653082728385925,0.08781187981367111,-0.3674354553222656
1684594520831447800,0.78944775390625,-0.24572055041790009,0.517861008644104,-0.4421137273311615
1684594520848330000,0.806330078125,-0.3646865487098694,0.8119926452636719,-1.0482447147369385
1684594520865203000,0.823202880859375,-0.6701191663742065,0.6534730792045593,-1.270447015762329
1684594520882073600,0.840073486328125,-0.6944010853767395,0.6259841322898865,-0.8698720932006836
1684594520898950400,0.856950439453125,-0.47907108068466187,0.5983424782752991,-0.48640143871307373
1684594520915822000,0.873822021484375,-0.4918992519378662,0.17608191072940826,-0.5639813542366028
1684594520932691500,0.89069140625,-0.6345362663269043,-0.4046982228755951,-0.8338310718536377
1684594520949565400,0.9075654296875,-0.6569855809211731,-0.4612032473087311,-0.8535314798355103
1684594520966439400,0.924439453125,-0.36224308609962463,-0.1869247704744339,-0.45723262429237366
1684594520983310800,0.941310791015625,-0.12140946835279465,-0.0913243517279625,0.026419922709465027
1684594521000183300,0.958183349609375,-0.08292495459318161,-0.1921171247959137,0.21792617440223694
1684594521017056000,0.975055908203125,-0.24373523890972137,-0.3504839241504669,0.15286903083324432
1684594521033929700,0.9919296875,-0.34956762194633484,-0.40851613879203796,0.030085112899541855
1684594521050801200,1.00880126953125,-0.26313021779060364,-0.25473082065582275,-0.012828170321881771
1684594521067673900,1.025673828125,-0.2356412708759308,-0.2921462953090668,-0.08750644326210022
1684594521084546600,1.042546630859375,-0.2974913716316223,-0.3081815242767334,-0.07773260027170181
1684594521101418800,1.059418701171875,-0.3735440969467163,-0.2431243658065796,0.1791362315416336
1684594521118297000,1.076297119140625,-0.3364340364933014,0.23808473348617554,0.5781839489936829
1684594521135164200,1.0931640625,-0.04230241850018501,0.611934244632721,0.873842716217041
1684594521152026600,1.110026611328125,0.22846360504627228,0.5105306506156921,0.8431467413902283
1684594521168910300,1.126910400390625,0.26481008529663086,0.3280346393585205,0.45402559638023376
1684594521185782300,1.1437822265625,0.19532416760921478,0.0757472887635231,0.031154127791523933
1684594521202656300,1.16065625,0.1621847152709961,0.03833179548382759,-0.07590000331401825
1684594521219526000,1.17752587890625,0.20433442294597626,0.19562959671020508,0.11514809727668762
1684594521236396300,1.194396240234375,0.2076941877603531,0.5090034604072571,0.38240164518356323
1684594521253269500,1.21126953125,0.27000242471694946,0.7331910133361816,0.6094908118247986
1684594521270145000,1.22814501953125,0.3689626157283783,0.693026602268219,0.7128797173500061
1684594521287017700,1.245017822265625,0.24678955972194672,0.48548516631126404,0.7622070908546448
1684594521303891500,1.261891357421875,-0.024434609338641167,0.3975205719470978,0.7582364678382874
1684594521320763000,1.278762939453125,-0.3179553747177124,0.2739730477333069,0.661719799041748
1684594521337638000,1.295637939453125,-0.4447098970413208,0.19547687470912933,0.4291328489780426
1684594521354505500,1.31250537109375,-0.3723223805427551,0.1511891484260559,0.08170322328805923
1684594521371381500,1.329381591796875,-0.2223549485206604,-0.2590068578720093,-0.3556762933731079
1684594521388253400,1.34625341796875,-0.3289509415626526,0.03298672288656235,-0.6989825367927551
1684594521405126000,1.3631259765625,-0.783892810344696,1.0196868181228638,-0.630871057510376
1684594521421988000,1.379988037109375,-1.0826059579849243,1.5331190824508667,-0.1592831164598465
1684594521438870800,1.396870849609375,-1.0853548049926758,2.2067506313323975,0.19883663952350616
1684594521455743700,1.41374365234375,-1.3153456449508667,2.7765352725982666,0.6702718734741211
1684594521472606000,1.43060595703125,-1.6161967515945435,2.8237245082855225,0.983340322971344
1684594521489488600,1.447488525390625,-1.871996521949768,2.5833492279052734,0.7150177955627441
1684594521506362600,1.464362548828125,-2.1539108753204346,2.016160726547241,-0.010537425056099892
1684594521523231500,1.4812314453125,-2.285705089569092,1.5827518701553345,-0.7997753024101257
1684594521540109600,1.498109619140625,-2.1293234825134277,1.691791296005249,-1.023046612739563
1684594521556976600,1.5149765625,-1.967902421951294,2.158339738845825,-0.9219483733177185
1684594521573855700,1.531855712890625,-1.9792033433914185,2.431243658065796,-0.9779952764511108
1684594521590724400,1.548724365234375,-2.0190622806549072,2.305863618850708,-1.2855658531188965
1684594521607597000,1.56559716796875,-2.088548183441162,2.12397837638855,-1.592373013496399
1684594521624469800,1.5824697265625,-2.2427916526794434,2.1403191089630127,-1.7192802429199219
1684594521641343700,1.59934375,-2.4019222259521484,2.3156373500823975,-1.739438772201538
1684594521658215000,1.61621484375,-2.6424503326416016,2.634661912918091,-1.9361374378204346
1684594521675087600,1.633087646484375,-2.9295570850372314,3.079371690750122,-2.0062341690063477
1684594521691960000,1.6499599609375,-3.2204816341400146,3.7979018688201904,-1.599397897720337
1684594521708833800,1.666833740234375,-3.4377968311309814,4.382652759552002,-0.9146180152893066
1684594521725717200,1.68371728515625,-3.520874500274658,4.220773220062256,-0.34116822481155396
1684594521742578000,1.700577880859375,-3.6247217655181885,3.4486396312713623,-0.24404066801071167
1684594521759454000,1.717453857421875,-3.7282633781433105,2.8875601291656494,-0.45463645458221436
1684594521776324000,1.734323974609375,-3.882812261581421,3.0300443172454834,-0.512210488319397
1684594521793196000,1.751196044921875,-3.9547414779663086,3.771634817123413,-0.11713340878486633
1684594521810068200,1.768068115234375,-4.012468338012695,4.441143035888672,0.4940372705459595
1684594521826941000,1.78494091796875,-4.1470112800598145,3.6302194595336914,0.7683157324790955
1684594521843814400,1.801814453125,-4.130365371704102,2.107637882232666,0.5914703011512756
1684594521860686300,1.818686279296875,-3.866013526916504,1.282511591911316,0.4628831446170807
1684594521877546800,1.835546630859375,-3.5213327407836914,1.584126353263855,0.7260133624076843
1684594521894433800,1.852433837890625,-3.218343496322632,2.5470025539398193,1.5274685621261597
1684594521911305200,1.86930517578125,-3.0642528533935547,2.9407052993774414,2.49294114112854
1684594521928176400,1.88617626953125,-2.992170572280884,2.4013113975524902,3.1134274005889893
1684594521945049000,1.903049072265625,-2.7846291065216064,1.2996158599853516,3.2007811069488525
1684594521961922000,1.919922119140625,-2.258521556854248,0.6085745096206665,2.9439122676849365
1684594521978795500,1.93679541015625,-1.5943583250045776,0.46899178624153137,2.5395195484161377
1684594521995667000,1.9536669921875,-1.2345587015151978,0.25366178154945374,2.1109976768493652
1684594522012537000,1.970537109375,-1.207069754600525,0.1996002197265625,1.998903751373291
1684594522029415000,1.987414794921875,-1.2180652618408203,-0.06352998316287994,2.1507039070129395
1684594522046286000,2.0042861328125,-1.0653489828109741,-0.4801400899887085,2.099238395690918
1684594522063157500,2.021157470703125,-0.717308521270752,-0.6905831694602966,1.8133535385131836
1684594522080030000,2.038030029296875,-0.22968533635139465,-0.7293730974197388,1.4260649681091309
1684594522096902700,2.054902587890625,0.23625212907791138,-0.7470881938934326,1.2669345140457153
1684594522113776000,2.071776123046875,0.7941248416900635,-0.4437935948371887,1.1673635244369507
1684594522130645200,2.088645263671875,1.0852020978927612,-0.197004035115242,0.8187121152877808
1684594522147512800,2.105512939453125,0.9877691268920898,-0.3312416672706604,-0.058948494493961334
1684594522164375800,2.122375732421875,0.8162686824798584,-0.7564038634300232,-1.1607966423034668
1684594522181266700,2.1392666015625,1.0030407905578613,-0.93095862865448,-1.9117027521133423
1684594522198127900,2.1561279296875,1.7008016109466553,-1.1380419731140137,-2.509434461593628
1684594522215010800,2.1730107421875,2.2423336505889893,-0.4008803069591522,-2.501340389251709
1684594522231883500,2.189883544921875,2.241722822189331,0.9030115604400635,-2.0807597637176514
1684594522248754400,2.20675439453125,2.029447078704834,1.6584991216659546,-1.3238977193832397
1684594522265631200,2.22363134765625,2.2014055252075195,1.352608323097229,-0.7840455174446106
1684594522282499000,2.2404990234375,2.188119411468506,0.7858781218528748,-0.22831088304519653
1684594522299376400,2.25737646484375,1.9773707389831543,0.5656611919403076,0.41004329919815063
1684594522316247000,2.2742470703125,1.8906279802322388,0.8539896011352539,0.7031059265136719
1684594522333119200,2.291119140625,1.5457944869995117,0.9225592613220215,0.5273294448852539
1684594522349991700,2.30799169921875,0.8914051055908203,0.802524209022522,0.14905111491680145
1684594522366864400,2.324864501953125,0.49128836393356323,0.7819074988365173,-0.12324206531047821
1684594522383738000,2.341738037109375,0.26251932978630066,0.432645320892334,-0.1082758679986
1684594522400609500,2.358609619140625,0.152105450630188,0.31444287300109863,-0.40485092997550964
1684594522417479400,2.3754794921875,0.04642575979232788,0.471129834651947,-0.5638286471366882
1684594522434357500,2.392357421875,-0.24984388053417206,0.693026602268219,-0.684779942035675
1684594522451228400,2.409228515625,-0.9053022861480713,1.0010554790496826,-0.9317222237586975
1684594522468113000,2.42611279296875,-1.6120734214782715,1.08718740940094,-1.104138970375061
1684594522484972800,2.442972900390625,-1.7863227128982544,1.1071932315826416,-1.1801916360855103
1684594522501834800,2.459834716796875,-2.1474967002868652,0.9103419184684753,-0.8666650652885437
1684594522518718700,2.47671875,-2.5828909873962402,0.5429064631462097,-1.288467526435852
1684594522535590400,2.49359033203125,-2.9272663593292236,-0.20525072515010834,-2.2018637657165527
1684594522552452400,2.510452392578125,-2.9437596797943115,-0.2321287989616394,-2.401005744934082
1684594522569335600,2.52733544921875,-2.5634961128234863,1.049619197845459,-1.750128984451294
1684594522586209300,2.544209228515625,-2.0786216259002686,0.5314527750015259,-1.1012372970581055
1684594522603078700,2.56107861328125,-1.4465289115905762,-1.3451253175735474,-0.24923302233219147
1684594522619953400,2.577953369140625,-0.9983065128326416,-1.75303053855896,0.23655757308006287
1684594522636825900,2.594825927734375,-0.513737678527832,-1.1187996864318848,0.5968153476715088
1684594522653699600,2.611699462890625,0.1598939746618271,0.050854530185461044,0.8200865983963013
1684594522670571300,2.6285712890625,0.9816604256629944,0.8921687006950378,0.984867513179779
1684594522687444000,2.64544384765625,0.8471173644065857,2.344653606414795,1.0945178270339966
1684594522704316700,2.662316650390625,0.7567093372344971,3.0715832710266113,1.094365119934082
1684594522721190100,2.679190185546875,0.9161451458930969,2.4885122776031494,1.3968961238861084
1684594522738061800,2.696061767578125,1.109789490699768,1.7301230430603027,1.9094120264053345
1684594522754934300,2.712934326171875,1.0462594032287598,1.5838208198547363,2.6222918033599854
1684594522771806700,2.729806640625,1.1189523935317993,2.1088595390319824,3.383888006210327
1684594522788680700,2.7466806640625,1.3156510591506958,1.7114917039871216,3.69069504737854
1684594522805552000,2.76355224609375,0.2945897579193115,0.49953505396842957,3.651294231414795
1684594522822414600,2.78041455078125,-0.4859432876110077,-0.9436340928077698,2.766455888748169
1684594522839294700,2.797294677734375,0.01924225501716137,-1.0419833660125732,2.0595321655273438
1684594522856173800,2.814173828125,1.0734429359436035,0.5908594131469727,1.8945986032485962
1684594522873042400,2.83104248046875,1.2040153741836548,1.7062993049621582,1.9026925563812256
1684594522889915000,2.847914794921875,0.9269880056381226,2.984229326248169,1.605353832244873
1684594522906787300,2.864787353515625,0.4740314185619354,3.3374621868133545,0.792750358581543
1684594522923662000,2.881662109375,-0.11255192011594772,2.07663631439209,-0.058184914290905
1684594522940533000,2.898532958984375,-0.8494081497192383,0.41141775250434875,-0.35934147238731384
1684594522957401000,2.915401123046875,-1.1033753156661987,-0.9149234294891357,-0.6223189830780029
1684594522974282800,2.93228271484375,-0.7093672752380371,-1.2892310619354248,-0.8524624705314636
1684594522991151900,2.94915185546875,-0.14385876059532166,-1.522887110710144,-1.0934487581253052
1684594523008012800,2.9660126953125,0.4447098970413208,-1.24647057056427,-1.0286970138549805
1684594523024896500,2.982896484375,0.8611672520637512,-0.4934264123439789,-0.6583600044250488
1684594523041755600,2.999755615234375,0.9993755221366882,0.10735956579446793,-0.2938261926174164
1684594523058645000,3.01664501953125,0.8211556077003479,-0.04306599870324135,-0.2611449062824249
1684594523075514600,3.0335146484375,0.4360050559043884,-0.4335615932941437,-0.4755585789680481
1684594523092385800,3.0503857421875,0.1469130963087082,-0.37430769205093384,-0.6068946123123169
1684594523109259000,3.067259033203125,0.1394299864768982,-0.11621711403131485,-0.5740606188774109
1684594523126132700,3.0841328125,0.20876319706439972,0.07330382615327835,-0.5322163701057434
1684594523143004400,3.10100439453125,0.2405281960964203,0.01572977937757969,-0.42791110277175903
1684594523159865600,3.117865478515625,0.2298380434513092,0.2125810980796814,-0.14553864300251007
1684594523176761000,3.134760986328125,0.15851953625679016,0.4024074673652649,0.21471913158893585
1684594523193622800,3.151622802734375,0.11988230794668198,0.11026117950677872,0.31093040108680725
1684594523210495200,3.1684951171875,0.12553280591964722,-0.24892759323120117,0.28237244486808777
1684594523227367400,3.185367431640625,0.15225815773010254,-0.323147714138031,0.3378084897994995
1684594523244240100,3.202240234375,0.14355333149433136,-0.16584990918636322,0.43905940651893616
1684594523261112800,3.21911279296875,0.10934487730264664,0.007177666760981083,0.48869219422340393
1684594523277986300,3.235986328125,0.051770828664302826,0.055283304303884506,0.4421137273311615
1684594523294857700,3.252857666015625,-0.05360342562198639,0.11071932315826416,0.39446622133255005
1684594523311730400,3.26973046875,-0.1840231567621231,0.26542094349861145,0.4254676401615143
1684594523328604200,3.286604248046875,-0.3045163154602051,0.34773504734039307,0.5076290369033813
1684594523345475600,3.3034755859375,-0.3623957931995392,0.22449298202991486,0.5726861953735352
1684594523362337500,3.320337646484375,-0.3032945990562439,0.038637228310108185,0.6081163287162781
1684594523379221200,3.33722119140625,-0.18219055235385895,-0.06872233748435974,0.6383541822433472
1684594523396094700,3.3540947265625,-0.10461067408323288,-0.012980886735022068,0.7061602473258972
1684594523412966100,3.370966064453125,-0.0809396430850029,0.16035212576389313,0.7939720749855042
1684594523429838800,3.3878388671875,-0.07712173461914062,0.30405816435813904,0.8484918475151062
1684594523446711300,3.404711181640625,-0.038637228310108185,0.2756529450416565,0.7825183868408203
1684594523463585300,3.421585205078125,0.07162395119667053,0.2684752643108368,0.6951646208763123
1684594523480456400,3.43845654296875,0.13973543047904968,0.20265454053878784,0.6197227835655212
1684594523497329200,3.4553291015625,0.1371392458677292,0.14477506279945374,0.5772676467895508
1684594523514201600,3.47220166015625,0.08903361111879349,0.1258382350206375,0.5881105065345764
1684594523531064800,3.48906494140625,0.04092797264456749,0.07238753139972687,0.6337726712226868
1684594523547947300,3.505947265625,-0.02321287989616394,-0.06414084881544113,0.6948592066764832
1684594523564820000,3.522820068359375,-0.06261368840932846,-0.14935655891895294,0.8153523802757263
1684594523581681700,3.539681640625,-0.06658431142568588,-0.18341228365898132,0.9877691268920898
1684594523598561800,3.556561767578125,-0.04886921867728233,-0.1586722433567047,1.1623238325119019
1684594523615441000,3.57344091796875,-0.029932396486401558,-0.061391957104206085,1.2643383741378784
1684594523632311000,3.59031103515625,-0.05742133408784866,0.0027488935738801956,1.2424999475479126
1684594523649182700,3.6071826171875,-0.10216721147298813,0.09147707372903824,1.14873206615448
1684594523666056400,3.624056396484375,-0.10491610318422318,0.2356412708759308,1.044274091720581
1684594523682928000,3.64092822265625,-0.07177666574716568,0.3623957931995392,0.9308059215545654
1684594523699800300,3.65780029296875,-0.015118914656341076,0.42149701714515686,0.8910996913909912
1684594523716673300,3.67467333984375,0.08536841720342636,0.5403103232383728,0.9952521920204163
1684594523733546800,3.691546630859375,0.19135354459285736,0.7215845584869385,1.1652255058288574
1684594523750418400,3.70841845703125,0.2678644061088562,0.8814785480499268,1.3232868909835815
1684594523767291100,3.725291015625,0.34544429183006287,1.1513283252716064,1.45004141330719
1684594523784163800,3.742163818359375,0.4225660264492035,1.516014814376831,1.528384804725647
1684594523801037300,3.759037353515625,0.44226643443107605,1.6685783863067627,1.4717271327972412
1684594523817908700,3.77590869140625,0.3556762933731079,1.3460415601730347,1.2328788042068481
1684594523834781400,3.792781494140625,0.24174992740154266,0.7944302558898926,0.9625709056854248
1684594523851654100,3.809654052734375,0.25854870676994324,0.5774203538894653,0.7724391222000122
1684594523868527600,3.826527587890625,0.38469240069389343,0.5920811295509338,0.5621487498283386
1684594523885399300,3.8433994140625,0.5079344511032104,0.6748533844947815,0.4499022662639618
1684594523902272300,3.860272216796875,0.44364088773727417,0.7611380815505981,0.6496551632881165
1684594523919144400,3.87714453125,0.2330450862646103,0.9686795473098755,1.100015640258789
1684594523936018200,3.89401806640625,-0.001832595793530345,1.1432342529296875,1.5778648853302002
1684594523952889600,3.9108896484375,-0.24465152621269226,1.0949759483337402,1.867567777633667
1684594523969759700,3.927759765625,-0.5212207436561584,0.8440630435943604,1.7718145847320557
1684594523986637600,3.944637451171875,-0.7619016766548157,0.7473936080932617,1.3190107345581055
1684594524003509000,3.961509033203125,-0.8642216324806213,1.1676689386367798,0.77472984790802
1684594524020380400,3.97838037109375,-0.8442157506942749,1.7626516819000244,0.32528573274612427
1684594524037255400,3.99525537109375,-0.7203628420829773,2.246915102005005,0.11209376901388168
1684594524054123000,4.012123046875,-0.6105598211288452,2.386955976486206,0.12690725922584534
1684594524070999000,4.0289990234375,-0.6131559610366821,1.7201964855194092,0.10445795953273773
1684594524087870700,4.04587060546875,-0.4558582007884979,0.7675521969795227,0.06123924255371094
1684594524104743400,4.062743408203125,-0.18157969415187836,-0.039248090237379074,-0.06352998316287994
1684594524121614000,4.079614013671875,0.020005837082862854,-0.48258355259895325,-0.28955012559890747
1684594524138489900,4.09648974609375,0.12461651116609573,-0.49205195903778076,-0.25182920694351196
1684594524155361300,4.113361328125,0.17806722223758698,-0.31932979822158813,0.17470745742321014
1684594524172233700,4.130233642578125,0.09376781433820724,-0.5106833577156067,0.5829181671142578
1684594524189106400,4.1471064453125,-0.11988230794668198,-0.8900306820869446,0.7347181439399719
1684594524205980400,4.16398046875,-0.35613444447517395,-0.9605855941772461,0.5493205785751343
1684594524222851800,4.180851806640625,-0.44028112292289734,-0.7475463151931763,0.18768835067749023
1684594524239724300,4.197724365234375,-0.3888157308101654,-0.6265950202941895,-0.15745051205158234
1684594524256597200,4.21459716796875,-0.22250767052173615,-0.6765332818031311,-0.422871470451355
1684594524273470700,4.231470703125,0.06276640295982361,-0.7023423314094543,-0.6130032539367676
1684594524290342100,4.248342041015625,0.41752639412879944,-0.5545129179954529,-0.6995934247970581
1684594524307214800,4.26521484375,0.7064656615257263,-0.4576907753944397,-0.6343835592269897
1684594524324087800,4.282087890625,0.7301366925239563,-0.5170974135398865,-0.4360050559043884
1684594524340961300,4.298961181640625,0.5308418869972229,-0.670577347278595,-0.28008171916007996
1684594524357832700,4.315832763671875,0.3712533414363861,-0.8666650652885437,-0.23945917189121246
1684594524374705400,4.332705322265625,0.4642575979232788,-0.8918632864952087,-0.2997821271419525
1684594524391577900,4.349577880859375,0.7060074806213379,-0.608727216720581,-0.46868637204170227
1684594524408451600,4.36645166015625,0.8313875794410706,-0.1459967941045761,-0.6244570016860962
1684594524425323300,4.3833232421875,0.7573201656341553,0.1371392458677292,-0.6711881756782532
1684594524442185200,4.400185302734375,0.5378668308258057,-0.03130684420466423,-0.7257078886032104
1684594524459055400,4.417055419921875,0.31444287300109863,-0.40744712948799133,-0.8205447196960449
1684594524475942100,4.433942138671875,0.20983220636844635,-0.7338019013404846,-0.8677340745925903
1684594524492813800,4.450813720703125,0.23411411046981812,-0.8587238192558289,-0.7475463151931763
1684594524509686300,4.467686279296875,0.2399173229932785,-1.1302534341812134,-0.5740606188774109
1684594524526555000,4.484554931640625,0.16768251359462738,-1.7014124393463135,-0.5642867684364319
1684594524543436800,4.501436767578125,0.1186605766415596,-2.1432206630706787,-0.6899722814559937
1684594524560304400,4.518304443359375,0.18096883594989777,-2.004096269607544,-0.8607091307640076
1684594524577174800,4.5351748046875,0.24572055041790009,-1.155909776687622,-0.9566149711608887
1684594524594051600,4.552051513671875,0.08811730891466141,-0.4535674452781677,-1.161102056503296
1684594524610923300,4.56892333984375,-0.2002110779285431,0.15790866315364838,-1.4253013134002686
1684594524627794700,4.585794677734375,-0.43417248129844666,0.5426010489463806,-1.716684103012085
1684594524644667400,4.60266748046875,-0.5422956347465515,0.6663012504577637,-1.8744399547576904
1684594524661529600,4.619529541015625,-0.5106833577156067,0.6262896060943604,-1.7718145847320557
1684594524678414600,4.63641455078125,-0.4105014503002167,0.30512720346450806,-1.5092953443527222
1684594524695284700,4.65328466796875,-0.3680463135242462,-0.2877175211906433,-1.195005178451538
1684594524712158000,4.670157958984375,-0.33719760179519653,-0.979827880859375,-0.9570731520652771
1684594524729030700,4.68703076171875,-0.25045475363731384,-1.463022232055664,-0.7408268451690674
1684594524745904000,4.703904052734375,-0.13698652386665344,-1.5068517923355103,-0.42088615894317627
1684594524762776000,4.720776123046875,-0.018020525574684143,-1.1388055086135864,0.014966198243200779
1684594524779639300,4.737639404296875,0.0910189226269722,-0.5787948369979858,0.4285219609737396
1684594524796521000,4.75452099609375,0.1915062516927719,-0.13041973114013672,0.598953366279602
1684594524813377300,4.771377197265625,0.16829337179660797,0.13118331134319305,0.44516804814338684
1684594524830266400,4.788266357421875,0.01878410577774048,0.3536909818649292,0.14813482761383057
1684594524847139000,4.80513916015625,-0.0981965884566307,0.7183775305747986,-0.016035212203860283
1684594524864011800,4.82201171875,0.04184427112340927,1.1533136367797852,0.076052725315094
1684594524880885000,4.838885009765625,0.31261029839515686,1.2150110006332397,0.2906191349029541
1684594524897754400,4.85575439453125,0.508087158203125,0.7060074806213379,0.4079052805900574
1684594524914632200,4.872632080078125,0.6067419052124023,-0.17287486791610718,0.3943135142326355
1684594524931495000,4.889494873046875,0.6591235995292664,-1.2432634830474854,0.29107728600502014
1684594524948375800,4.906375732421875,0.6604980230331421,-2.1988093852996826,0.2278527319431305
1684594524965245000,4.923244873046875,0.5433646440505981,-2.470491886138916,0.4109596014022827
1684594524982113300,4.94011328125,0.1820378452539444,-1.9254472255706787,0.856433093547821
1684594524998992600,4.95699267578125,-0.2802344262599945,-1.49906325340271,1.0749701261520386
1684594525015855900,4.97385595703125,-0.5229006409645081,-0.9857838153839111,1.065043568611145
1684594525032738000,4.990738037109375,-0.4856378734111786,-0.10659598559141159,0.9900598526000977
1684594525049610800,5.00761083984375,-0.3188716471195221,0.8602510094642639,0.8678867816925049
1684594525066483200,5.024483154296875,-0.14614951610565186,1.7727309465408325,0.6589708924293518
1684594525083357200,5.041357177734375,-0.04642575979232788,2.478433132171631,0.38606682419776917
1684594525100228400,5.058228271484375,-0.09315694868564606,2.8464794158935547,0.17241671681404114
1684594525117101000,5.07510107421875,-0.2499966025352478,2.8909196853637695,0.09636399149894714
1684594525133974000,5.09197412109375,-0.33948835730552673,2.861292839050293,0.2721404731273651
1684594525150836700,5.108836669921875,-0.2968805134296417,2.7039949893951416,0.6835582256317139
1684594525167719000,5.125718994140625,-0.3173444867134094,1.9370536804199219,1.078635334968567
1684594525184592100,5.142592041015625,-0.40882155299186707,0.9101892113685608,1.363603949546814
1684594525201453600,5.15945361328125,-0.4596760869026184,0.10399980843067169,1.4388930797576904
1684594525218337800,5.176337890625,-0.4005748927593231,-0.28619036078453064,1.2399036884307861
1684594525235207000,5.19320703125,-0.2687807083129883,-0.2548835277557373,0.8761335015296936
1684594525252085000,5.2100849609375,-0.08200865983963013,0.014508049935102463,0.6046038866043091
1684594525268955000,5.226954833984375,0.062460970133543015,0.2545780837535858,0.5780312418937683
1684594525285828600,5.24382861328125,0.10231992602348328,0.11759155988693237,0.5671883821487427
1684594525302697700,5.26069775390625,0.03237585723400116,-0.2174680233001709,0.3956879675388336
1684594525319575600,5.277575439453125,-0.056352317333221436,-0.26511552929878235,0.11301007121801376
1684594525336445400,5.294445556640625,-0.09636399149894714,0.03191770985722542,-0.16432274878025055
1684594525353319000,5.31131884765625,-0.1264491081237793,0.43050727248191833,-0.3013092875480652
1684594525370190800,5.32819091796875,-0.23182335495948792,0.8355109095573425,-0.23182335495948792
1684594525387063300,5.345063232421875,-0.3995058834552765,0.9781479835510254,-0.0858265683054924
1684594525403936300,5.361936279296875,-0.5445863604545593,0.9042332768440247,0.08017606288194656
1684594525420809700,5.378809814453125,-0.608421802520752,0.5300782918930054,0.12996158003807068
1684594525437681400,5.395681396484375,-0.584139883518219,-0.04596760869026184,0.10567969083786011
1684594525454553900,5.412553955078125,-0.47510045766830444,-0.5677992701530457,0.19364428520202637
1684594525471423700,5.429423828125,-0.34544429183006287,-1.0042624473571777,0.3562871515750885
1684594525488302800,5.446302734375,-0.27000242471694946,-1.5222761631011963,0.3295617997646332
1684594525505171700,5.463171630859375,-0.21044307947158813,-1.7402023077011108,0.16630806028842926
1684594525522036200,5.4800361328125,-0.16111570596694946,-1.4326317310333252,0.08216137439012527
1684594525538917000,5.496917236328125,-0.17623461782932281,-0.9650143980979919,0.19196440279483795
1684594525555790800,5.513790771484375,-0.25244006514549255,-0.835358202457428,0.40286561846733093
1684594525572662300,5.530662353515625,-0.3266601860523224,-1.107956886291504,0.45326200127601624
1684594525589535000,5.547534912109375,-0.28008171916007996,-1.3886494636535645,0.20128010213375092
1684594525606404900,5.56440478515625,-0.052839845418930054,-1.4648548364639282,-0.1189660057425499
1684594525623285000,5.581284912109375,0.13439035415649414,-1.268614411354065,-0.19792033731937408
1684594525640153000,5.598153076171875,0.12476922571659088,-1.1270463466644287,0.02122756652534008
1684594525657023200,5.615023193359375,0.02535090781748295,-1.1342240571975708,0.3266601860523224
1684594525673900800,5.63190087890625,0.02687807008624077,-1.309084177017212,0.3804163336753845
1684594525690772000,5.64877197265625,0.1414152979850769,-1.2009611129760742,0.3162754774093628
1684594525707643400,5.665643310546875,0.2217440903186798,-0.8956811428070068,0.26633724570274353
1684594525724516400,5.682516357421875,0.18096883594989777,-0.7301366925239563,0.2538145184516907
1684594525741386000,5.699385986328125,0.059406645596027374,-0.7796167731285095,0.27458393573760986
1684594525758262800,5.7162626953125,-0.04657847434282303,-0.8523097038269043,0.33246341347694397
1684594525775134200,5.73313427734375,-0.08429940044879913,-0.8535314798355103,0.37201693654060364
1684594525791996700,5.74999658203125,-0.09773843735456467,-0.7475463151931763,0.4054618179798126
1684594525808879600,5.766879638671875,-0.156686931848526,-0.6747006773948669,0.4268420934677124
1684594525825753000,5.783753173828125,-0.24465152621269226,-0.759305477142334,0.3631593883037567
1684594525842625000,5.800625,-0.31642818450927734,-0.806647539138794,0.24037547409534454
1684594525859497200,5.817497314453125,-0.3651446998119354,-0.5345070958137512,0.17318029701709747
1684594525876357400,5.834357421875,-0.44486260414123535,-0.18631389737129211,0.15225815773010254
1684594525893246200,5.85124609375,-0.49693888425827026,-0.20097467303276062,0.025961773470044136
1684594525910115300,5.868115234375,-0.4541783034801483,-0.13775011897087097,-0.10094548016786575
1684594525926988000,5.884988037109375,-0.34804046154022217,-0.03329215571284294,-0.22327125072479248
1684594525943860700,5.90186083984375,-0.2929098904132843,0.07070764899253845,-0.22632557153701782
1684594525960734200,5.918734130859375,-0.32100969552993774,0.0503963828086853,-0.11438451707363129
1684594525977603300,5.935603271484375,-0.35445454716682434,-0.00809396430850029,-0.031001411378383636
1684594525994481200,5.952481201171875,-0.3459024429321289,0.0027488935738801956,-0.04612032696604729
1684594526011351300,5.969351318359375,-0.30894508957862854,0.1189660057425499,-0.0981965884566307
1684594526028225000,5.98622509765625,-0.24923302233219147,0.18860463798046112,-0.15256360173225403
1684594526045096700,6.0030966796875,-0.20097467303276062,0.15195272862911224,-0.15622878074645996
1684594526061969400,6.019969482421875,-0.18799377977848053,0.010231993161141872,-0.0858265683054924
1684594526078841900,6.036841796875,-0.11591167747974396,-0.14049901068210602,-0.04382958263158798
1684594526095715600,6.053715576171875,0.046731192618608475,-0.024434609338641167,-0.03695734590291977
1684594526112587000,6.0705869140625,0.22602014243602753,-0.06001751124858856,-0.2451096773147583
1684594526129459700,6.087459716796875,0.3058907687664032,0.08720101416110992,-0.3107776939868927
1684594526146332400,6.10433251953125,0.2532036304473877,0.001527163083665073,-0.24846944212913513
1684594526163206400,6.121206298828125,0.1540907621383667,-0.09468411654233932,-0.08185594528913498
1684594526180077600,6.13807763671875,0.16630806028842926,-0.10308351367712021,-0.01618792861700058
1684594526196950500,6.154950439453125,0.3032945990562439,0.12034045159816742,-0.09040805697441101
1684594526213823000,6.171822998046875,0.4207334518432617,0.3156646192073822,-0.2324342280626297
1684594526230697000,6.188697021484375,0.4147774875164032,0.32330042123794556,-0.2802344262599945
1684594526247568400,6.205568359375,0.3107776939868927,0.18341228365898132,-0.17379115521907806
1684594526264441300,6.22244140625,0.2292271852493286,0.06459899991750717,-0.046731192618608475
1684594526281313800,6.239313720703125,0.23655757308006287,0.16630806028842926,-0.026419922709465027
1684594526298187300,6.256187255859375,0.28237244486808777,0.41630467772483826,-0.11178833991289139
1684594526315059000,6.273058837890625,0.2942843437194824,0.5545129179954529,-0.19822576642036438
1684594526331931600,6.289931640625,0.28848111629486084,0.4605923891067505,-0.22372940182685852
1684594526348804000,6.30680419921875,0.32559117674827576,0.34956762194633484,-0.21960605680942535
1684594526365678000,6.323677978515625,0.3827070891857147,0.35643985867500305,-0.2298380434513092
1684594526382549800,6.3405498046875,0.40912699699401855,0.43127086758613586,-0.27229318022727966
1684594526399421700,6.357421630859375,0.3819434940814972,0.44394633173942566,-0.3309362530708313
1684594526416295400,6.37429541015625,0.3254384696483612,0.3747658133506775,-0.3703370690345764
1684594526433168600,6.391168701171875,0.29016098380088806,0.32039880752563477,-0.3810271918773651
1684594526450040300,6.408040283203125,0.2790127098560333,0.3504839241504669,-0.36713001132011414
1684594526466913000,6.4249130859375,0.23426681756973267,0.4144720733165741,-0.34804046154022217
1684594526483785700,6.44178564453125,0.13118331134319305,0.4954117238521576,-0.30253100395202637
1684594526500670500,6.45867041015625,0.003512475173920393,0.5450445413589478,-0.2393064647912979
1684594526517528300,6.4755283203125,-0.12751811742782593,0.47708576917648315,-0.17638733983039856
1684594526534406100,6.49240625,-0.24327708780765533,0.31459560990333557,-0.10247264802455902
1684594526551267000,6.50926708984375,-0.33337971568107605,0.08888089656829834,-0.01542434748262167
1684594526568152000,6.526152099609375,-0.4008803069591522,-0.16065755486488342,0.06704246252775192
1684594526585021700,6.543021728515625,-0.45463645458221436,-0.2825251817703247,0.1869247704744339
1684594526601903000,6.559903076171875,-0.4934264123439789,-0.32498031854629517,0.3043636083602905
1684594526618766800,6.576766845703125,-0.49785518646240234,-0.37827831506729126,0.3666718602180481
1684594526635640600,6.593640625,-0.46013423800468445,-0.4153883755207062,0.37888917326927185
1684594526652512300,6.61051220703125,-0.39477166533470154,-0.42088615894317627,0.36682456731796265
1684594526669385000,6.627385009765625,-0.3289509415626526,-0.4150829315185547,0.3494149148464203
1684594526686257400,6.64425732421875,-0.2814561724662781,-0.43050727248191833,0.34773504734039307
1684594526703131400,6.66113134765625,-0.24938572943210602,-0.4268420934677124,0.3761402666568756
1684594526720002800,6.6780029296875,-0.20891591906547546,-0.3920227587223053,0.3868304193019867
1684594526736876500,6.69487646484375,-0.1788308024406433,-0.3168863356113434,0.3627012372016907
1684594526753747500,6.71174755859375,-0.21349740028381348,-0.290313720703125,0.33292156457901
1684594526770622000,6.7286220703125,-0.2750420868396759,-0.44806966185569763,0.33047810196876526
1684594526787490800,6.74549072265625,-0.2883284091949463,-0.7663304209709167,0.3271183371543884
1684594526804369000,6.762368896484375,-0.23839016258716583,-0.9969320893287659,0.34147366881370544
1684594526821239000,6.779239013671875,-0.17440202832221985,-1.0054842233657837,0.40393465757369995
1684594526838112800,6.79611279296875,-0.1385136991739273,-0.9228646755218506,0.4648684561252594
1684594526854984200,6.812984130859375,-0.11591167747974396,-0.8313875794410706,0.49327367544174194
1684594526871857000,6.82985693359375,-0.1270599663257599,-0.6533203721046448,0.5109887719154358
1684594526888729600,6.8467294921875,-0.1014036312699318,-0.60429847240448,0.39675697684288025
1684594526905603300,6.863603271484375,-0.01817324012517929,-0.5198463201522827,0.204487144947052
1684594526922475000,6.88047509765625,0.06505715101957321,-0.32299500703811646,0.019547687843441963
1684594526939347500,6.897347412109375,0.12980885803699493,-0.12049316614866257,-0.1342376321554184
1684594526956220400,6.914220458984375,0.1745547503232956,-0.009926560334861279,-0.2116648107767105
1684594526973094000,6.931093994140625,0.09987647086381912,0.07162395119667053,-0.036041051149368286
1684594526989965600,6.947965576171875,0.12171489745378494,-0.17669276893138885,-0.20662516355514526
1684594527006838300,6.96483837890625,0.11835514008998871,0.03680463135242462,-0.25244006514549255
1684594527023711200,6.981711181640625,0.0832303911447525,0.13775011897087097,-0.22342395782470703
1684594527040584700,6.998584716796875,0.13240504264831543,0.2431243658065796,-0.18157969415187836
1684594527057452500,7.01545263671875,0.20005837082862854,0.35323283076286316,-0.19944749772548676
1684594527074333000,7.0323330078125,0.18539759516716003,0.36819902062416077,-0.2093740701675415
1684594527091199000,7.049198974609375,0.1313360333442688,0.2814561724662781,-0.16814066469669342
1684594527108078000,7.066078125,0.12690725922584534,0.16844609379768372,-0.10674870014190674
1684594527124947200,7.082947265625,0.22281309962272644,0.15393804013729095,-0.08597928285598755
1684594527141806600,7.099806640625,0.37827831506729126,0.24862214922904968,-0.14065171778202057
1684594527158695000,7.11669482421875,0.48258355259895325,0.41813725233078003,-0.2165517359972
1684594527175566000,7.133566162109375,0.4645630121231079,0.5245805382728577,-0.25274550914764404
1684594527192437500,7.1504375,0.3721696436405182,0.46639561653137207,-0.23167064785957336
1684594527209310500,7.167310546875,0.30314189195632935,0.30024027824401855,-0.1771509200334549
1684594527226183200,7.18418310546875,0.32788193225860596,0.16172657907009125,-0.14340060949325562
1684594527243057200,7.20105712890625,0.42088615894317627,0.15073099732398987,-0.16661348938941956
1684594527259928300,7.21792822265625,0.48609602451324463,0.2356412708759308,-0.21853704750537872
1684594527276801000,7.234801025390625,0.5006040930747986,0.3901901841163635,-0.26251932978630066
1684594527293670000,7.251669921875,0.4888449013233185,0.5432119369506836,-0.30970868468284607
1684594527310547500,7.26854736328125,0.46181413531303406,0.6540839672088623,-0.3692680299282074
1684594527327419100,7.285419189453125,0.41813725233078003,0.7073819637298584,-0.4340197443962097
1684594527344291800,7.302291748046875,0.3500257730484009,0.6769914031028748,-0.4973970353603363
1684594527361164500,7.31916455078125,0.25641068816185,0.5615378618240356,-0.5416847467422485
1684594527378038300,7.336038330078125,0.1333213448524475,0.4156937897205353,-0.5198463201522827
1684594527394909700,7.35290966796875,-0.009010262787342072,0.2871066629886627,-0.40164390206336975
1684594527411782700,7.36978271484375,-0.16814066469669342,0.18219055235385895,-0.21899518370628357
1684594527428655000,7.386655029296875,-0.3404046595096588,0.08659014850854874,-0.02122756652534008
1684594527445529000,7.403529052734375,-0.5215262174606323,0.01191187184303999,0.1846340149641037
1684594527462400800,7.42040087890625,-0.6772968173027039,-0.051770828664302826,0.35735616087913513
1684594527479273200,7.437273193359375,-0.7831292152404785,-0.14309518039226532,0.4421137273311615
1684594527496146000,7.45414599609375,-0.8297077417373657,-0.22479841113090515,0.4502076804637909
1684594527513019600,7.47101953125,-0.8151996731758118,-0.25244006514549255,0.43020185828208923
1684594527529891300,7.487891357421875,-0.7451028823852539,-0.23854288458824158,0.42088615894317627
1684594527546764300,7.504764404296875,-0.6397286057472229,-0.1918116807937622,0.44913867115974426
1684594527563637000,7.521636962890625,-0.5216789245605469,-0.2373211532831192,0.45723262429237366
1684594527580510500,7.538510498046875,-0.39767327904701233,-0.3605632185935974,0.4098905920982361
1684594527597379300,7.55537939453125,-0.2658790946006775,-0.399200439453125,0.3423899710178375
1684594527614257700,7.572257568359375,-0.1313360333442688,-0.35750889778137207,0.2768746614456177
1684594527631116800,7.58911669921875,-0.050854530185461044,-0.4014911949634552,0.23518311977386475
1684594527648001300,7.606001220703125,-0.0861319974064827,-0.6533203721046448,0.22770002484321594
1684594527664873000,7.622873046875,-0.16630806028842926,-0.9508117437362671,0.26740625500679016
1684594527681735000,7.63973486328125,-0.21471913158893585,-1.1252137422561646,0.3332269787788391
1684594527698618000,7.6566181640625,-0.21151208877563477,-1.049924612045288,0.4205807149410248
1684594527715491800,7.673491943359375,-0.194713294506073,-0.7834346890449524,0.542142927646637
1684594527732363500,7.690363525390625,-0.1615738570690155,-0.5166392922401428,0.5997169613838196
1684594527749236200,7.707236328125,-0.10751228034496307,-0.460897833108902,0.5117523670196533
1684594527766109000,7.72410888671875,-0.0656680166721344,-0.3856086730957031,0.4043927788734436
1684594527782982000,7.74098193359375,-0.003817907767370343,-0.36911532282829285,0.26572638750076294
1684594527799855400,7.75785546875,0.01924225501716137,0.32100969552993774,0.46868637204170227
1684594527816727000,7.77472705078125,-0.012522737495601177,0.2926044464111328,0.4885394871234894
1684594527833599700,7.791599853515625,-0.026572637259960175,0.04337143152952194,0.17440202832221985
1684594527850473500,7.808473388671875,0.031154127791523933,0.12095131725072861,-0.2942843437194824
1684594527867345200,7.82534521484375,0.13668109476566315,0.07452555745840073,-0.7750352621078491
1684594527884217900,7.8422177734375,0.16814066469669342,0.09560041129589081,-0.879187822341919
1684594527901090600,7.859090576171875,0.1134682223200798,0.26022860407829285,-0.45295658707618713
1684594527917964300,7.87596435546875,0.08017606288194656,0.14416420459747314,-0.026114489883184433
1684594527934836000,7.8928359375,0.14645494520664215,0.09117163717746735,0.0809396430850029
1684594527951708700,7.909708740234375,0.2246456891298294,0.230448916554451,-0.058795779943466187
1684594527968581400,7.926581298828125,0.21762074530124664,0.35934147238731384,-0.2353358417749405
1684594527985455000,7.943455078125,0.197004035115242,0.37522396445274353,-0.3423899710178375
1684594528002326800,7.960326904296875,0.24862214922904968,0.36529740691185,-0.35873061418533325
1684594528019199200,7.97719921875,0.3549126982688904,0.31001409888267517,-0.3223841190338135
1684594528036072200,7.994072265625,0.4386012554168701,0.2509129047393799,-0.275347501039505
1684594528052946000,8.01094580078125,0.44654250144958496,0.20173825323581696,-0.2848159074783325
1684594528069817600,8.027817626953125,0.4011857509613037,0.21838432550430298,-0.3396410644054413
1684594528086690000,8.04468994140625,0.3536909818649292,0.3234531581401825,-0.3828597962856293
1684594528103563000,8.06156298828125,0.32788193225860596,0.4631885588169098,-0.380721777677536
1684594528120436700,8.078436767578125,0.3000875413417816,0.528245747089386,-0.35521814227104187
1684594528137308400,8.095308349609375,0.2600758671760559,0.5064072608947754,-0.3208569586277008
1684594528154181000,8.11218115234375,0.2295326143503189,0.48869219422340393,-0.29626965522766113
1684594528171053800,8.1290537109375,0.24007004499435425,0.4938845634460449,-0.30925053358078003
1684594528187927600,8.145927490234374,0.28298333287239075,0.5331326723098755,-0.37461310625076294
1684594528204799200,8.16279931640625,0.3271183371543884,0.6275113224983215,-0.44913867115974426
1684594528221657600,8.17965771484375,0.299018532037735,0.7023423314094543,-0.475253164768219
1684594528238544600,8.196544677734375,0.16081027686595917,0.7600690722465515,-0.3827070891857147
1684594528255418400,8.21341845703125,-0.06383541971445084,0.6398813724517822,-0.1992947906255722
1684594528272289800,8.230289794921875,-0.2587014436721802,0.1788308024406433,-0.06765332818031311
1684594528289162800,8.247162841796875,-0.3546072840690613,-0.2177734673023224,0.07406741380691528
1684594528306035200,8.26403515625,-0.4173736870288849,-0.4199698567390442,0.24205535650253296
1684594528322909000,8.280908935546876,-0.47739118337631226,-0.517250120639801,0.38957929611206055
1684594528339780900,8.29778076171875,-0.50335294008255,-0.574976921081543,0.45326200127601624
1684594528356653600,8.314653564453126,-0.4723515510559082,-0.5633704662322998,0.4231768846511841
1684594528373526300,8.3315263671875,-0.39125919342041016,-0.5190827250480652,0.34574973583221436
1684594528390400000,8.34839990234375,-0.30146199464797974,-0.4772384762763977,0.289244681596756
1684594528407271700,8.365271728515625,-0.24633140861988068,-0.45723262429237366,0.27519479393959045
1684594528424144400,8.382144287109375,-0.2379320114850998,-0.40424007177352905,0.28359419107437134
1684594528441016800,8.399016845703125,-0.2790127098560333,-0.33857205510139465,0.2632829248905182
1684594528457890800,8.415890869140625,-0.35384368896484375,-0.275347501039505,0.23029619455337524
1684594528474758400,8.43275830078125,-0.44425174593925476,-0.24327708780765533,0.27091872692108154
1684594528491639300,8.449639404296875,-0.5273294448852539,-0.3452915847301483,0.3729332387447357
1684594528508508000,8.4665078125,-0.5723807215690613,-0.5360342264175415,0.44974952936172485
1684594528525381600,8.483381591796874,-0.5714644193649292,-0.726471483707428,0.48090365529060364
1684594528542253300,8.50025341796875,-0.5129740834236145,-0.6690501570701599,0.5071708559989929
1684594528559126000,8.5171259765625,-0.38866302371025085,-0.47571131587028503,0.4714352488517761
1684594528575998700,8.533998779296875,-0.21044307947158813,-0.34636059403419495,0.3445279896259308
1684594528592872400,8.55087255859375,-0.03833179548382759,-0.29367345571517944,0.2194533348083496
1684594528609744100,8.567744140625,0.09300423413515091,-0.4329507350921631,0.12049316614866257
1684594528626616800,8.584616943359375,0.1973094791173935,-0.5484042763710022,0.0858265683054924
1684594528643489800,8.60148974609375,-0.003817907767370343,1.3810136318206787,1.28128981590271
1684594528660363300,8.61836328125,-0.04505131021142006,0.044745877385139465,0.8110763430595398
1684594528677232000,8.635232177734375,-0.06123924255371094,-0.2767219543457031,0.5123631954193115
1684594528694110500,8.6521103515625,-0.02122756652534008,-0.20799961686134338,0.1036943718791008
1684594528710980600,8.668980712890624,0.12018773704767227,-0.20693060755729675,-0.4335615932941437
1684594528727854000,8.68585400390625,0.35063666105270386,-0.31642818450927734,-0.9651671051979065
1684594528744726000,8.70272607421875,0.5117523670196533,-0.27977627515792847,-1.1684324741363525
1684594528761588200,8.719588134765624,0.4300491213798523,0.15561792254447937,-0.6768386960029602
1684594528778471200,8.73647119140625,0.2750420868396759,0.13668109476566315,-0.13286319375038147
1684594528795345000,8.753344970703125,0.27641651034355164,0.031001411378383636,0.038637228310108185
1684594528812216600,8.770216552734375,0.35842517018318176,0.10491610318422318,-0.1108720451593399
1684594528829089500,8.787089599609375,0.33475416898727417,0.1768454909324646,-0.27641651034355164
1684594528845962200,8.803962158203126,0.25106561183929443,0.13545936346054077,-0.3094032406806946
1684594528862836000,8.8208359375,0.26145032048225403,0.10949759185314178,-0.30024027824401855
1684594528879707600,8.837707763671874,0.3804163336753845,0.14309518039226532,-0.30512720346450806
1684594528896580400,8.854580322265624,0.4781547784805298,0.1788308024406433,-0.28619036078453064
1684594528913453000,8.871453125,0.48915034532546997,0.17501288652420044,-0.25763240456581116
1684594528930327000,8.8883271484375,0.4558582007884979,0.1797471046447754,-0.2791654169559479
1684594528947198500,8.905198486328125,0.41722095012664795,0.2837468981742859,-0.3271183371543884
1684594528964071400,8.922071533203125,0.36071592569351196,0.417679101228714,-0.3539963960647583
1684594528980944000,8.93894384765625,0.2915354371070862,0.5083925724029541,-0.35521814227104187
1684594528997817600,8.955817626953126,0.24174992740154266,0.5774203538894653,-0.36071592569351196
1684594529014689300,8.972689208984375,0.22907446324825287,0.6264423131942749,-0.38728857040405273
1684594529031562000,8.98956201171875,0.2428189367055893,0.6565274000167847,-0.41202861070632935
1684594529048434700,9.0064345703125,0.2684752643108368,0.6821837425231934,-0.41630467772483826
1684594529065308700,9.02330859375,0.2788599729537964,0.6452264189720154,-0.4213443100452423
1684594529082170000,9.040170166015624,0.2580905556678772,0.5571091175079346,-0.42730024456977844
1684594529099053000,9.057052978515625,0.20494529604911804,0.4691445231437683,-0.3949243724346161
1684594529115925800,9.07392578125,0.1062905490398407,0.4046982228755951,-0.2997821271419525
1684594529132799500,9.090799560546875,-0.03741549700498581,0.3068070709705353,-0.14248432219028473
1684594529149671200,9.107671142578125,-0.19578230381011963,0.078343465924263,0.03298672288656235
1684594529166545200,9.124545166015626,-0.32788193225860596,-0.168751522898674,0.20784689486026764
1684594529183415800,9.141415771484375,-0.41111230850219727,-0.30344730615615845,0.3410155177116394
1684594529200290300,9.158290283203126,-0.4537201523780823,-0.3400992155075073,0.3904955983161926
1684594529217162000,9.175161865234376,-0.4677700698375702,-0.23457226157188416,0.403323769569397
1684594529234035000,9.192034912109374,-0.4833471179008484,-0.10995574295520782,0.41630467772483826
1684594529250907600,9.20890771484375,-0.4996877610683441,-0.1137736514210701,0.4216497242450714
1684594529267781000,9.225781005859375,-0.48685958981513977,-0.20173825323581696,0.42989641427993774
1684594529284653300,9.2426533203125,-0.4444044530391693,-0.2817615866661072,0.44394633173942566
1684594529301525800,9.25952587890625,-0.3891211748123169,-0.2756529450416565,0.4720461070537567
1684594529318398500,9.2763984375,-0.35094207525253296,-0.2574796974658966,0.47510045766830444
1684594529335272200,9.293272216796876,-0.3309362530708313,-0.21563543379306793,0.41890084743499756
1684594529352144000,9.310143798828125,-0.34697145223617554,-0.15073099732398987,0.3741549551486969
1684594529369006800,9.3270068359375,-0.4297437071800232,-0.2838996350765228,0.4066835343837738
1684594529385889500,9.3438896484375,-0.5114469528198242,-0.5572618246078491,0.5059491395950317
1684594529402763300,9.36076318359375,-0.4999932050704956,-0.6887505650520325,0.5991060733795166
1684594529419635000,9.377635009765624,-0.39706242084503174,-0.6432411074638367,0.6343835592269897
1684594529436507600,9.394507568359375,-0.2590068578720093,-0.4902193546295166,0.589179515838623
1684594529453380600,9.411380615234375,-0.11636982858181,-0.4688390791416168,0.42088615894317627
1684594529470254000,9.428254150390625,-0.029016099870204926,-0.3836233615875244,0.31291571259498596
1684594529487125800,9.445125732421875,-0.005345070734620094,-0.2926044464111328,0.2768746614456177
1684594529503998700,9.461998779296875,-0.36651915311813354,2.1533000469207764,1.91399347782135
1684594529520871200,9.47887109375,-0.4340197443962097,1.386053204536438,1.7539467811584473
1684594529537745400,9.495745361328124,-0.4879286289215088,0.4859432876110077,1.3558154106140137
1684594529554616800,9.512616943359374,-0.5621487498283386,-0.1463022232055664,0.8698720932006836
1684594529571489800,9.52948974609375,-0.47311514616012573,-0.05604688450694084,0.4427245855331421
1684594529588362200,9.5463623046875,-0.28328874707221985,0.15241087973117828,-0.05100724846124649
1684594529605235700,9.563235595703125,-0.015882495790719986,0.09239336848258972,-0.6901249885559082
1684594529622108400,9.5801083984375,0.22907446324825287,0.04963280260562897,-1.2267701625823975
1684594529638980400,9.59698046875,0.41431936621665955,-0.22571471333503723,-1.5714508295059204
1684594529655853300,9.613853271484375,0.5436700582504272,-0.7234171628952026,-1.7328720092773438
1684594529672726800,9.630726806640626,0.5424483418464661,-0.42760565876960754,-1.2620476484298706
1684594529689598700,9.6475986328125,0.3975205719470978,0.13561208546161652,-0.34697145223617554
1684594529706471400,9.664471435546876,0.29245173931121826,-0.0019853119738399982,0.13454307615756989
1684594529723344400,9.681344482421874,0.35521814227104187,-0.04764748737215996,0.1440114825963974
1684594529740220200,9.69822021484375,0.4558582007884979,-0.013897184282541275,-0.058948494493961334
1684594529757076200,9.715076171875,0.4564690589904785,0.03298672288656235,-0.24129177629947662
1684594529773962500,9.73196240234375,0.3998112976551056,0.12797626852989197,-0.3627012372016907
1684594529790835200,9.748835205078125,0.36713001132011414,0.2765692472457886,-0.4486805200576782
1684594529807709000,9.765708984375,0.35613444447517395,0.3770565688610077,-0.4579962193965912
1684594529824580900,9.782580810546875,0.3269656300544739,0.38408151268959045,-0.4127921760082245
1684594529841442800,9.79944287109375,0.27779096364974976,0.3462078869342804,-0.3695734739303589
1684594529858323500,9.816323486328125,0.23090706765651703,0.3686571717262268,-0.36850446462631226
1684594529875202600,9.83320263671875,0.19914206862449646,0.5128213763237,-0.4178318381309509
1684594529892071700,9.85007177734375,0.16737708449363708,0.6768386960029602,-0.4801400899887085
1684594529908944400,9.8669443359375,0.1394299864768982,0.7469354867935181,-0.5244278311729431
1684594529925817000,9.883817138671875,0.13301590085029602,0.7116580009460449,-0.5357288122177124
1684594529942691000,9.900691162109375,0.15882496535778046,0.5679519772529602,-0.5328271985054016
1684594529959562500,9.9175625,0.20754146575927734,0.3481931984424591,-0.52702397108078
1684594529976435500,9.934435546875,0.24342979490756989,0.1598939746618271,-0.4862487316131592
1684594529993308000,9.951307861328125,0.21639901399612427,0.060933809727430344,-0.39385536313056946
1684594530010182000,9.968181884765626,0.12217304855585098,0.03527746722102165,-0.2698497176170349
1684594530027053600,9.985053466796876,-0.00931569468230009,0.026114489883184433,-0.1547016203403473
1684594530043926500,10.001926513671876,-0.11102475970983505,-0.0007635815418325365,-0.10735956579446793
1684594530060809000,10.01880908203125,-0.1638645976781845,-0.01924225501716137,-0.09193521738052368
1684594530077673000,10.0356728515625,-0.1973094791173935,-0.11331550031900406,-0.053297992795705795
1684594530094544600,10.052544677734375,-0.22831088304519653,-0.342237263917923,0.020922135561704636
1684594530111417300,10.069417236328125,-0.24633140861988068,-0.5954409241676331,0.11728613078594208
1684594530128290300,10.086290283203125,-0.24236078560352325,-0.7628179788589478,0.20876319706439972
1684594530145164000,10.1031640625,-0.23380866646766663,-0.826195240020752,0.2620611786842346
1684594530162035700,10.12003564453125,-0.24602597951889038,-0.7953465580940247,0.25595253705978394
1684594530178908400,10.136908447265625,-0.2970332205295563,-0.6716463565826416,0.22647829353809357
1684594530195781000,10.153781005859376,-0.37400224804878235,-0.5919284224510193,0.22846360504627228
1684594530212654800,10.17065478515625,-0.4017966091632843,-0.5867360830307007,0.23426681756973267
1684594530229526500,10.187526611328124,-0.33399057388305664,-0.541532039642334,0.17837265133857727
1684594530246399500,10.2043994140625,-0.23548854887485504,-0.4899139404296875,0.1082758679986
1684594530263272400,10.2212724609375,-0.15714508295059204,-0.5479460954666138,0.07208210229873657
1684594530280146000,10.23814599609375,-0.14233160018920898,-0.8356636762619019,0.128434419631958
1684594530297017600,10.255017578125,-0.1569923609495163,-1.2371548414230347,0.23060162365436554
1684594530313890600,10.271890625,-0.12538009881973267,-1.4185818433761597,0.265573650598526
1684594530330763300,10.28876318359375,-0.047189339995384216,-1.186300277709961,0.2535090744495392
1684594530347637000,10.305636962890626,0.011301007121801376,-0.6707300543785095,0.20311269164085388
1684594530364509000,10.322509033203126,-0.04703662544488907,-0.30894508957862854,0.12171489745378494
1684594530381381400,10.33938134765625,-0.1927279829978943,-0.3127630054950714,0.126143679022789
1684594530398254300,10.35625439453125,-0.29886582493782043,-0.4915938079357147,0.21181751787662506
1684594530415128000,10.373128173828125,-0.2974913716316223,-0.6772968173027039,0.2561052441596985
1684594530431999700,10.389999755859375,-0.18478673696517944,-0.6785185933113098,0.24266621470451355
1684594530448872400,10.40687255859375,-0.012522737495601177,-0.5371032953262329,0.20586158335208893
1684594530465745200,10.4237451171875,0.15393804013729095,-0.35934147238731384,0.1612684279680252
1684594530482619100,10.440619140625,0.27458393573760986,-0.27320948243141174,0.07376197725534439
1684594530499490600,10.457490478515625,0.32421672344207764,-0.1915062516927719,-0.030237829312682152
1684594530516363500,10.474363525390626,0.28130343556404114,-0.017867809161543846,-0.08170322328805923
1684594530533236500,10.491236572265626,0.17791450023651123,0.1511891484260559,-0.07131851464509964
1684594530550109700,10.508109619140624,0.10583240538835526,0.13454307615756989,-0.06062837690114975
1684594530566982100,10.524982177734374,0.11911872029304504,0.1537853181362152,-0.07437284290790558
1684594530583854800,10.541854736328125,0.1615738570690155,0.289702832698822,-0.10002918541431427
1684594530600727300,10.558727294921875,0.17776179313659668,0.3741549551486969,-0.1281289905309677
1684594530617598500,10.575598388671875,0.19120082259178162,0.3854559659957886,-0.14813482761383057
1684594530634475500,10.5924755859375,0.24007004499435425,0.33658674359321594,-0.1872301995754242
1684594530651345700,10.609345703125,0.3269656300544739,0.384845107793808,-0.2145664244890213
1684594530668218400,10.62621826171875,0.3975205719470978,0.5429064631462097,-0.2249511331319809
1684594530685092400,10.64309228515625,0.41340306401252747,0.6368269920349121,-0.2548835277557373
1684594530701964000,10.659964111328126,0.3747658133506775,0.6218608021736145,-0.26145032048225403
1684594530718836500,10.67683642578125,0.2964223623275757,0.5264131426811218,-0.22067506611347198
1684594530735709400,10.69370947265625,0.22479841113090515,0.49296826124191284,-0.156686931848526
1684594530752583200,10.710583251953125,0.1999056488275528,0.5694791078567505,-0.16279558837413788
1684594530769455000,10.727455078125,0.1915062516927719,0.769690215587616,-0.18249599635601044
1684594530786327600,10.74432763671875,0.16340644657611847,0.9393580555915833,-0.14340060949325562
1684594530803200800,10.76120068359375,0.13240504264831543,0.9928087592124939,-0.10613783448934555
1684594530820074200,10.77807421875,0.1062905490398407,0.9213374853134155,-0.11759155988693237
1684594530836946000,10.79494580078125,0.09743300825357437,0.8897252082824707,-0.13759739696979523
1684594530853818600,10.811818603515626,0.1108720451593399,0.9941831827163696,-0.14798210561275482
1684594530870691600,10.828691650390626,0.1267545372247696,1.125366449356079,-0.14996741712093353
1684594530887565300,10.8455654296875,0.12293662875890732,1.1354458332061768,-0.1287398487329483
1684594530904437200,10.862437255859374,0.1036943718791008,0.993725061416626,-0.08017606288194656
1684594530921310000,10.87931005859375,0.09300423413515091,0.7486153841018677,-0.020922135561704636
1684594530938182700,10.8961826171875,0.09636399149894714,0.4616613984107971,0.013897184282541275
1684594530955056400,10.913056396484375,0.09040805697441101,0.2955060601234436,0.03741549700498581
1684594530971928000,10.929927978515625,0.022907447069883347,0.23136521875858307,0.1010981947183609
1684594530988798200,10.946798095703125,-0.09987647086381912,0.02367102913558483,0.16768251359462738
1684594531005676300,10.96367626953125,-0.1999056488275528,-0.24129177629947662,0.21609358489513397
1684594531022547700,10.980547607421874,-0.2594650089740753,-0.446389764547348,0.2612976133823395
1684594531039419100,10.997419189453124,-0.2938261926174164,-0.5720753073692322,0.3058907687664032
1684594531056292000,11.0142919921875,-0.318566232919693,-0.6250678896903992,0.34345898032188416
1684594531073164800,11.031164794921875,-0.34162637591362,-0.6389650702476501,0.3735440969467163
1684594531090038500,11.04803857421875,-0.34345898032188416,-0.6209444999694824,0.37048977613449097
1684594531106910500,11.064910400390625,-0.31261029839515686,-0.5716171264648438,0.299476683139801
1684594531123783400,11.081783447265625,-0.27779096364974976,-0.4489859640598297,0.18845193088054657
1684594531140655900,11.09865576171875,-0.28267788887023926,-0.29794952273368835,0.08216137439012527
1684594531157527000,11.115527099609375,-0.3219259977340698,-0.2611449062824249,-0.01970040425658226
1684594531174404000,11.132404052734374,-0.3436116874217987,-0.22708915174007416,-0.08216137439012527
1684594531191285500,11.149285400390625,-0.3399465084075928,-0.17669276893138885,-0.07941248267889023
1684594531208147000,11.16614697265625,-0.3724750876426697,-0.2889392673969269,0.020616702735424042
1684594531225021000,11.18302099609375,-0.4433354437351227,-0.6875288486480713,0.19837848842144012
1684594531241892600,11.199892578125,-0.4236350357532501,-1.040150761604309,0.2929098904132843
1684594531258765300,11.216765380859375,-0.28909197449684143,-0.9427177906036377,0.2353358417749405
1684594531275638000,11.233637939453125,-0.156686931848526,-0.4732678532600403,0.15424346923828125
1684594531292511700,11.25051171875,-0.14446963369846344,-0.08979719132184982,0.13927727937698364
1684594531309383700,11.2673837890625,-0.24892759323120117,-0.09437867999076843,0.23625212907791138
1684594531326256400,11.28425634765625,-0.3326161205768585,-0.3816380500793457,0.32589662075042725
1684594531343131600,11.301131591796874,-0.2974913716316223,-0.6349944472312927,0.32818734645843506
1684594531360000800,11.318000732421876,-0.16264286637306213,-0.646906316280365,0.3321579694747925
1684594531376874800,11.334874755859374,0.0039706239476799965,-0.7040221691131592,0.3266601860523224
1684594531393747500,11.35174755859375,0.14477506279945374,-0.7689266204833984,0.3911064863204956
1684594531410620200,11.3686201171875,0.25335636734962463,-0.707840085029602,0.4931209683418274
1684594531427494100,11.385494140625,0.3433062732219696,-0.5862779021263123,0.4642575979232788
1684594531444363800,11.40236376953125,0.3660610020160675,-0.34895676374435425,0.3142901659011841
1684594531461238800,11.41923876953125,0.289244681596756,-0.06444628536701202,0.1420261710882187
1684594531478111500,11.436111572265625,0.17470745742321014,0.12232576310634613,-0.028557950630784035
1684594531494985200,11.452985107421876,0.06963863968849182,0.21502456068992615,-0.13179416954517365
1684594531511857400,11.469857421875,0.014049900695681572,0.2767219543457031,-0.16859880089759827
1684594531528729900,11.486729736328124,0.018020525574684143,0.34666603803634644,-0.17272214591503143
1684594531545602600,11.5036025390625,0.02825251780450344,0.40714168548583984,-0.15393804013729095
1684594531562476500,11.5204765625,0.02535090781748295,0.4723515510559082,-0.1270599663257599
1684594531579348000,11.537347900390625,0.04917465150356293,0.5401576161384583,-0.15073099732398987
1684594531596220700,11.554220703125,0.0959058403968811,0.6197227835655212,-0.20555615425109863
1684594531613093600,11.57109375,0.12171489745378494,0.6444628238677979,-0.23839016258716583
1684594531629967400,11.58796728515625,0.1293507218360901,0.5908594131469727,-0.2635883390903473
1684594531646839000,11.604839111328126,0.14966198801994324,0.5047274231910706,-0.29245173931121826
1684594531663712300,11.621712158203126,0.19562959671020508,0.4554000496864319,-0.2672535479068756
1684594531680582100,11.63858203125,0.26679539680480957,0.40256020426750183,-0.20082195103168488
1684594531697457200,11.65545703125,0.33628132939338684,0.3553708493709564,-0.15913039445877075
1684594531714334500,11.67233447265625,0.36193767189979553,0.3721696436405182,-0.16325373947620392
1684594531731203000,11.689203125,0.3303253948688507,0.44028112292289734,-0.18738290667533875
1684594531748076000,11.706075927734375,0.2528982162475586,0.5115996599197388,-0.19853121042251587
1684594531764949800,11.72294970703125,0.1696678251028061,0.5623014569282532,-0.1774563491344452
1684594531781810700,11.739810791015625,0.1313360333442688,0.5338962078094482,-0.17302757501602173
1684594531798694400,11.7566943359375,0.16462817788124084,0.4908302128314972,-0.20265454053878784
1684594531815567000,11.773567138671876,0.24373523890972137,0.48685958981513977,-0.24174992740154266
1684594531832440800,11.79044091796875,0.33246341347694397,0.4928155243396759,-0.2710714638233185
1684594531849312800,11.807312744140624,0.38759398460388184,0.4963280260562897,-0.28496864438056946
1684594531866185500,11.824185546875,0.3878994286060333,0.5064072608947754,-0.2678644061088562
1684594531883059200,11.84105908203125,0.3355177342891693,0.5459607839584351,-0.22388210892677307
1684594531899932000,11.857931884765625,0.23457226157188416,0.611934244632721,-0.1869247704744339
1684594531916803800,11.874803955078125,0.09040805697441101,0.6597344875335693,-0.1771509200334549
1684594531933676500,11.891676513671875,-0.07483099400997162,0.6333145499229431,-0.1817324161529541
1684594531950549200,11.90854931640625,-0.19776763021945953,0.4867068827152252,-0.16081027686595917
1684594531967423200,11.92542333984375,-0.24724771082401276,0.21395555138587952,-0.07513642311096191
1684594531984295000,11.942294921875,-0.275347501039505,-0.13561208546161652,0.06505715101957321
1684594532001168000,11.95916796875,-0.31062498688697815,-0.4544837474822998,0.20662516355514526
1684594532018040300,11.976040283203124,-0.34177911281585693,-0.6476698517799377,0.3286454975605011
1684594532034914300,11.992914306640625,-0.35063666105270386,-0.7301366925239563,0.4098905920982361
1684594532051786200,12.0097861328125,-0.32528573274612427,-0.7507534027099609,0.4213443100452423
1684594532068659000,12.026658935546875,-0.2580905556678772,-0.6918048858642578,0.35659259557724
1684594532085532000,12.043531982421875,-0.18936823308467865,-0.5681046843528748,0.25641068816185
1684594532102405600,12.060405517578126,-0.168751522898674,-0.45036038756370544,0.17470745742321014
1684594532119277300,12.07727734375,-0.19379699230194092,-0.39645153284072876,0.13209961354732513
1684594532136150000,12.09414990234375,-0.230448916554451,-0.3568980097770691,0.14233160018920898
1684594532153023000,12.11102294921875,-0.2611449062824249,-0.3439171314239502,0.1840231567621231
1684594532169896700,12.127896728515625,-0.2945897579193115,-0.4963280260562897,0.22250767052173615
1684594532186768400,12.144768310546874,-0.3335324227809906,-0.8100073337554932,0.2788599729537964
1684594532203641300,12.161641357421875,-0.3202461004257202,-1.0329731702804565,0.3455969989299774
1684594532220513800,12.178513671875,-0.25793784856796265,-0.9841039180755615,0.3933972120285034
1684594532237384400,12.195384521484375,-0.19456058740615845,-0.7611380815505981,0.3901901841163635
1684594532254257000,12.2122568359375,-0.15515977144241333,-0.48808133602142334,0.32299500703811646
1684594532271132400,12.22913232421875,-0.15882496535778046,-0.303600013256073,0.23335053026676178
1684594532288005000,12.246005126953126,-0.20525072515010834,-0.19562959671020508,0.1667662113904953
1684594532304879000,12.262879150390624,-0.2906191349029541,-0.15745051205158234,0.18387043476104736
1684594532321740500,12.279740478515626,-0.35613444447517395,-0.20983220636844635,0.25702154636383057
1684594532338623500,12.29662353515625,-0.3168863356113434,-0.24144448339939117,0.2799290120601654
1684594532355496400,12.313496337890625,-0.20402899384498596,-0.19456058740615845,0.26511552929878235
1684594532372370200,12.3303701171875,-0.09758572280406952,-0.20265454053878784,0.26145032048225403
1684594532389241900,12.347241943359375,0.005650503560900688,-0.30146199464797974,0.22602014243602753
1684594532406114800,12.36411474609375,0.1108720451593399,-0.2373211532831192,0.13988813757896423
1684594532422987500,12.380987548828125,0.14584407210350037,-0.058795779943466187,0.08979719132184982
1684594532439861200,12.397861328125,0.1365283876657486,0.02367102913558483,0.03436116874217987
1684594532456733200,12.414733154296876,0.17104226350784302,0.09651670604944229,-0.10690141469240189
1684594532473606000,12.43160595703125,0.20066922903060913,0.20555615425109863,-0.1837177276611328
1684594532490478800,12.448478759765624,0.17379115521907806,0.19608774781227112,-0.11591167747974396
1684594532507352300,12.465352294921875,0.15332718193531036,0.12018773704767227,-0.039095375686883926
1684594532524224500,12.482224609375,0.18768835067749023,0.10583240538835526,-0.05054909735918045
1684594532541097000,12.499096923828125,0.24098633229732513,0.16890424489974976,-0.10170906037092209
1684594532557970000,12.515969970703125,0.27519479393959045,0.2828305959701538,-0.1508837193250656
1684594532574834700,12.532834716796875,0.2788599729537964,0.3985895812511444,-0.19807305932044983
1684594532591715600,12.549715576171875,0.2701551616191864,0.4331034719944,-0.2525927722454071
1684594532608588300,12.56658837890625,0.2591595947742462,0.4105014503002167,-0.28435778617858887
1684594532625461200,12.583461181640626,0.25564709305763245,0.408363401889801,-0.2802344262599945
1684594532642335000,12.6003349609375,0.25793784856796265,0.4538728892803192,-0.2353358417749405
1684594532659206700,12.61720654296875,0.26145032048225403,0.44715335965156555,-0.19944749772548676
1684594532676079400,12.634079345703125,0.2606867551803589,0.4108068645000458,-0.18936823308467865
1684594532692952300,12.650952392578125,0.23945917189121246,0.38209620118141174,-0.2047925740480423
1684594532709826000,12.667825927734375,0.2168571650981903,0.42241331934928894,-0.2545780837535858
1684594532726697200,12.684697265625,0.20891591906547546,0.5963571667671204,-0.31459560990333557
1684594532743571500,12.701571533203126,0.2018909603357315,0.7713701128959656,-0.35353827476501465
1684594532760443400,12.718443359375,0.1869247704744339,0.8058840036392212,-0.35873061418533325
1684594532777317000,12.735317138671874,0.17318029701709747,0.6604980230331421,-0.33826664090156555
1684594532794189000,12.75218896484375,0.17562375962734222,0.4389066696166992,-0.29336804151535034
1684594532811061800,12.769061767578124,0.2119702398777008,0.2606867551803589,-0.2393064647912979
1684594532827934500,12.7859345703125,0.2770273983478546,0.2635883390903473,-0.19837848842144012
1684594532844808700,12.80280859375,0.3149010241031647,0.5088507533073425,-0.1690569519996643
1684594532861678800,12.819678955078125,0.24785856902599335,0.7414376735687256,-0.14446963369846344
1684594532878553000,12.836552978515625,0.055283304303884506,0.722348153591156,-0.12370020896196365
1684594532895425800,12.85342578125,-0.14645494520664215,0.4758640229701996,-0.08109235763549805
1684594532912299800,12.8702998046875,-0.24602597951889038,0.06154467165470123,-0.020616702735424042
1684594532929166600,12.88716650390625,-0.23151792585849762,-0.3286454975605011,0.044745877385139465
1684594532946032400,12.904032470703125,-0.17699819803237915,-0.5543602108955383,0.12950342893600464
1684594532962917000,12.920917236328124,-0.12293662875890732,-0.6899722814559937,0.2050980031490326
1684594532979790800,12.937790771484375,-0.07742717117071152,-0.7214318513870239,0.2658790946006775
1684594532996662500,12.95466259765625,-0.06902777403593063,-0.712574303150177,0.29275718331336975
1684594533013535200,12.97153515625,-0.12095131725072861,-0.7295258045196533,0.2629774808883667
1684594533030408000,12.988407958984375,-0.19715675711631775,-0.6097962260246277,0.1927279829978943
1684594533047282000,13.005281982421875,-0.2727513313293457,-0.32131510972976685,0.1033889427781105
1684594533064154000,13.022154052734376,-0.39843684434890747,-0.0377209298312664,0.044135015457868576
1684594533081026600,13.039026611328126,-0.5671883821487427,0.08765916526317596,0.07666359096765518
1684594533097899500,13.0558994140625,-0.674089789390564,-0.06734789162874222,0.10415252298116684
1684594533114773200,13.072773193359374,-0.6215553879737854,-0.27580565214157104,0.06276640295982361
1684594533131645200,13.089645263671875,-0.46242499351501465,-0.34834590554237366,0.10461067408323288
1684594533148518000,13.106517822265625,-0.3355177342891693,-0.40714168548583984,0.2719877362251282
1684594533165390600,13.123390625,-0.30543261766433716,-0.5010622143745422,0.43799036741256714
1684594533182264800,13.140264892578125,-0.2993239760398865,-0.5369505286216736,0.4870123267173767
1684594533199136000,13.157135986328125,-0.2779437005519867,-0.49037206172943115,0.43875396251678467
1684594533216009000,13.174009033203125,-0.23151792585849762,-0.42730024456977844,0.38835757970809937
1684594533232882000,13.1908818359375,-0.16233743727207184,-0.44547349214553833,0.3689626157283783
1684594533249755600,13.207755615234374,-0.06688974797725677,-0.45982882380485535,0.36942076683044434
1684594533266627300,13.22462744140625,0.04382958263158798,-0.38606682419776917,0.36880987882614136
1684594533283500500,13.24150048828125,0.10919216275215149,-0.36010506749153137,0.3628539443016052
1684594533300373000,13.258373046875,0.10415252298116684,-0.45753806829452515,0.3933972120285034
1684594533317244200,13.275244140625,0.07208210229873657,-0.5890268087387085,0.42470407485961914
1684594533334121200,13.292121337890626,0.06994406878948212,-0.5499314665794373,0.3744603991508484
1684594533350991400,13.308991455078125,0.09437867999076843,-0.3013092875480652,0.2574796974658966
1684594533367864000,13.325864013671875,0.11881329119205475,0.020616702735424042,0.0910189226269722
1684594533384738300,13.34273828125,0.11545353382825851,0.2477058619260788,-0.07987063378095627
1684594533401614000,13.359614013671875,0.09376781433820724,0.3790418803691864,-0.21930062770843506
1684594533418481700,13.376481689453126,0.07330382615327835,0.4282165467739105,-0.2719877362251282
1684594533435356400,13.3933564453125,0.0403171069920063,0.31520646810531616,-0.21105393767356873
1684594533452229400,13.4102294921875,0.01725694350898266,0.16325373947620392,-0.08735372871160507
1684594533469101000,13.42710107421875,0.03680463135242462,0.17760907113552094,-0.011301007121801376
1684594533485974300,13.443974365234375,0.0910189226269722,0.3315471112728119,-0.04886921867728233
1684594533502846700,13.4608466796875,0.14477506279945374,0.5532912015914917,-0.18799377977848053
1684594533519718000,13.4777177734375,0.1560760736465454,0.7683157324790955,-0.3149010241031647
1684594533536595000,13.494594970703124,0.1082758679986,0.7864890098571777,-0.36590829491615295
1684594533553465000,13.511465087890626,0.06811147183179855,0.6432411074638367,-0.34956762194633484
1684594533570338000,13.528338134765624,0.1212567538022995,0.49953505396842957,-0.3101668357849121
1684594533587211800,13.545211669921875,0.2551889419555664,0.4291328489780426,-0.2741257846355438
1684594533604083700,13.562083740234375,0.3732386529445648,0.3972151279449463,-0.2223549485206604
1684594533620957000,13.57895703125,0.4004221558570862,0.4001167416572571,-0.17058411240577698
1684594533637829000,13.5958291015625,0.342695415019989,0.4213443100452423,-0.1589776873588562
1684594533654703000,13.612703125,0.2588541507720947,0.418748140335083,-0.20066922903060913
1684594533671574800,13.62957470703125,0.22602014243602753,0.41859540343284607,-0.23457226157188416
1684594533688447500,13.646447509765625,0.26313021779060364,0.39767327904701233,-0.22159136831760406
1684594533705320400,13.663320556640626,0.3090978264808655,0.3830125033855438,-0.17852537333965302
1684594533722194400,13.6801943359375,0.32100969552993774,0.375529408454895,-0.15500704944133759
1684594533739065900,13.69706591796875,0.2942843437194824,0.4164573848247528,-0.16294831037521362
1684594533755938800,13.713938720703124,0.24587325751781464,0.5239696502685547,-0.19257527589797974
1684594533772811800,13.730811767578125,0.18051068484783173,0.598647952079773,-0.2431243658065796
1684594533789685500,13.747685546875,0.11713340878486633,0.5720753073692322,-0.30253100395202637
1684594533806557200,13.76455712890625,0.07360926270484924,0.48426342010498047,-0.3182607889175415
1684594533823430100,13.78143017578125,0.032070424407720566,0.3579670190811157,-0.23335053026676178
1684594533840302800,13.798302734375,-0.04795292019844055,0.09010262042284012,-0.07727445662021637
1684594533857175000,13.815175048828126,-0.14355333149433136,-0.1966986060142517,0.07040221989154816
1684594533874050000,13.832050048828124,-0.22357667982578278,-0.39874228835105896,0.17928895354270935
1684594533890921200,13.848921142578124,-0.3116939961910248,-0.5464189648628235,0.29138273000717163
1684594533907794200,13.865794189453124,-0.38240164518356323,-0.660192608833313,0.38667771220207214
1684594533924668200,13.882668212890625,-0.39553526043891907,-0.6867652535438538,0.3985895812511444
1684594533941539600,13.89953955078125,-0.3549126982688904,-0.5874996781349182,0.3263547718524933
1684594533958412500,13.91641259765625,-0.3055853247642517,-0.41401392221450806,0.20861047506332397
1684594533975285500,13.933285400390625,-0.3068070709705353,-0.2623666226863861,0.11316278576850891
1684594533992159000,13.950158935546876,-0.36621370911598206,-0.23548854887485504,0.06704246252775192
1684594534009031000,13.967031005859376,-0.41813725233078003,-0.27488934993743896,0.03145955875515938
1684594534025903600,13.983903564453126,-0.39965859055519104,-0.2269364446401596,-0.00015271631127689034
1684594534044857600,14.002857666015625,-0.34208452701568604,-0.17547103762626648,0.012828170321881771
1684594534059689700,14.017689697265626,-0.36300668120384216,-0.32528573274612427,0.13866640627384186
1684594534076522200,14.034522216796875,-0.4283692538738251,-0.5971207618713379,0.3413209617137909
1684594534093395000,14.05139501953125,-0.4213443100452423,-0.7243334650993347,0.41722095012664795
1684594534110268000,14.068267822265625,-0.342237263917923,-0.6615670323371887,0.3677408695220947
1684594534127141600,14.0851416015625,-0.2606867551803589,-0.5338962078094482,0.31261029839515686
1684594534144013600,14.102013671875,-0.1866193264722824,-0.4430300295352936,0.3013092875480652
1684594534160886000,14.118885986328126,-0.08521570265293121,-0.38835757970809937,0.2932153046131134
1684594534177759000,14.135759033203126,0.051770828664302826,-0.3194825351238251,0.22831088304519653
1684594534194633000,14.152633056640624,0.18295414745807648,-0.25595253705978394,0.13958270847797394
1684594534211504600,14.169504638671874,0.28787025809288025,-0.2483167201280594,0.04642575979232788
1684594534228377600,14.186377685546875,0.3599523603916168,-0.31459560990333557,0.009468411095440388
1684594534245250600,14.20325048828125,0.3930917978286743,-0.3880521357059479,0.05009094998240471
1684594534262124300,14.220124267578125,0.38209620118141174,-0.37079519033432007,0.11759155988693237
1684594534278996000,14.236995849609375,0.36102136969566345,-0.21151208877563477,0.10812314599752426
1684594534295868700,14.25386865234375,0.33719760179519653,0.12782354652881622,-0.0022907445672899485
1684594534312741000,14.2707412109375,0.2542726695537567,0.3654501438140869,-0.1290452778339386
1684594534329615400,14.287615478515624,0.128434419631958,0.34636059403419495,-0.16798794269561768
1684594534346487000,14.304487060546874,0.058184914290905,0.2838996350765228,-0.1690569519996643
1684594534363360000,14.321360107421874,0.05543602257966995,0.2519819140434265,-0.17379115521907806
1684594534380232700,14.338232666015625,0.08109235763549805,0.2814561724662781,-0.17104226350784302
1684594534397106700,14.355106689453125,0.14874568581581116,0.21212296187877655,-0.2154827117919922
1684594534413978400,14.371978271484375,0.24908030033111572,0.3675881624221802,-0.2611449062824249
1684594534430851300,14.388851318359375,0.3170390725135803,0.5679519772529602,-0.31932979822158813
1684594534447724000,14.40572412109375,0.30115658044815063,0.6795876026153564,-0.3465133011341095
1684594534464598000,14.422597900390626,0.23273965716362,0.661719799041748,-0.36300668120384216
1684594534481483500,14.4394833984375,0.16325373947620392,0.5867360830307007,-0.35705074667930603
1684594534498342400,14.45634228515625,0.13301590085029602,0.46303585171699524,-0.33597588539123535
1684594534515215000,14.473215087890624,0.17302757501602173,0.35659259557724,-0.3217732608318329
1684594534532089000,14.490089111328125,0.2793181240558624,0.36682456731796265,-0.34147366881370544
1684594534548959000,14.506958984375,0.3926336467266083,0.470060795545578,-0.39477166533470154
1684594534565835500,14.52383544921875,0.42149701714515686,0.5925393104553223,-0.4352414906024933
1684594534582706700,14.540706787109375,0.31383201479911804,0.6725626587867737,-0.40286561846733093
1684594534599580200,14.557580078125,0.11407908797264099,0.6798930168151855,-0.3017674386501312
1684594534616452000,14.5744521484375,-0.07238753139972687,0.5438227653503418,-0.18280142545700073
1684594534633324800,14.59132470703125,-0.17638733983039856,0.31261029839515686,-0.07757988572120667
1684594534650197800,14.60819775390625,-0.1693623960018158,0.16508632898330688,-0.0019853119738399982
1684594534667071700,14.62507177734375,-0.10919216275215149,0.07987063378095627,0.02871066704392433
1684594534683943700,14.641943603515625,-0.09728029370307922,-0.16279558837413788,0.007941247895359993
1684594534700816100,14.658816162109375,-0.1459967941045761,-0.4001167416572571,0.046731192618608475
1684594534717689000,14.675689208984375,-0.2145664244890213,-0.5763513445854187,0.12767083942890167
1684594534734562800,14.692562744140625,-0.266642689704895,-0.6792821288108826,0.19624045491218567
1684594534751434500,14.7094345703125,-0.294437050819397,-0.6827946305274963,0.25763240456581116
1684594534768307500,14.726307373046875,-0.3208569586277008,-0.6556110978126526,0.3289509415626526
1684594534785180400,14.743180419921876,-0.33948835730552673,-0.6913467645645142,0.347276896238327
1684594534802054400,14.760054443359374,-0.3266601860523224,-0.726471483707428,0.27611109614372253
1684594534818925800,14.77692578125,-0.2837468981742859,-0.6663012504577637,0.16325373947620392
1684594534835798800,14.793798828125,-0.23380866646766663,-0.48227810859680176,0.10293079167604446
1684594534852671500,14.81067138671875,-0.2028072625398636,-0.27550023794174194,0.11499538272619247
1684594534869545500,14.82754541015625,-0.22067506611347198,-0.23350323736667633,0.1621847152709961
1684594534886417200,14.844417236328125,-0.27947086095809937,-0.5671883821487427,0.19318613409996033
1684594534903290000,14.8612900390625,-0.2646573781967163,-0.9074403047561646,0.18768835067749023
1684594534920162800,14.878162841796875,-0.20616702735424042,-0.9185886383056641,0.24908030033111572
1684594534937036500,14.89503662109375,-0.1820378452539444,-0.7406741380691528,0.3985895812511444
1684594534953908500,14.911908447265626,-0.19089539349079132,-0.5862779021263123,0.526107668876648
1684594534970781200,14.92878125,-0.18570303916931152,-0.5537493228912354,0.5145012736320496
1684594534987654000,14.94565380859375,-0.152105450630188,-0.5520694851875305,0.40133845806121826
1684594535004527900,14.96252783203125,-0.10170906037092209,-0.508087158203125,0.29733866453170776
1684594535021386800,14.97938671875,-0.06017022579908371,-0.42928555607795715,0.21181751787662506
1684594535038272500,14.9962724609375,-0.010842857882380486,-0.3162754774093628,0.10430523753166199
1684594535055145200,15.013145263671875,0.03344487398862839,-0.12476922571659088,0.05971207842230797
1684594535072019000,15.03001904296875,0.08414668589830399,-0.09636399149894714,0.02519819140434265
1684594535088891000,15.046890869140626,0.13454307615756989,-0.09269879758358002,0.015577063895761967
1684594535105753000,15.063753173828125,0.1394299864768982,-0.036651913076639175,0.015118914656341076
1684594535122636800,15.08063671875,0.07712173461914062,0.036193765699863434,0.017562376335263252
1684594535139510300,15.09751025390625,0.020616702735424042,0.13561208546161652,-0.02626720629632473
1684594535156382000,15.1143818359375,0.029016099870204926,0.3162754774093628,-0.12767083942890167
1684594535173255000,15.1312548828125,0.07620543986558914,0.4694499373435974,-0.21380282938480377
1684594535190127900,15.1481279296875,0.14935655891895294,0.5309945940971375,-0.2942843437194824
1684594535207001600,15.165001708984375,0.20861047506332397,0.4709770977497101,-0.30863967537879944
1684594535223873500,15.18187353515625,0.251676470041275,0.399200439453125,-0.2574796974658966
1684594535240748800,15.198748779296874,0.27870726585388184,0.35934147238731384,-0.1889100819826126
1684594535257613600,15.215613525390625,0.2919935882091522,0.32039880752563477,-0.16264286637306213
1684594535274495500,15.23249560546875,0.2952006161212921,0.31322115659713745,-0.1820378452539444
1684594535291364600,15.249364501953124,0.3049744665622711,0.38347065448760986,-0.21502456068992615
1684594535308237600,15.266237548828125,0.32498031854629517,0.4726569950580597,-0.24236078560352325
1684594535325110300,15.2831103515625,0.33597588539123535,0.5222898125648499,-0.2477058619260788
1684594535341984300,15.299984375,0.3300199508666992,0.49586987495422363,-0.23609942197799683
1684594535358856000,15.31685595703125,0.31902438402175903,0.4369213581085205,-0.2093740701675415
1684594535375728600,15.333728759765625,0.3119994103908539,0.3718642294406891,-0.182648703455925
1684594535392601300,15.350601318359375,0.33169981837272644,0.38209620118141174,-0.18875735998153687
1684594535409475300,15.367475341796874,0.3718642294406891,0.47830748558044434,-0.25503623485565186
1684594535426347300,15.38434716796875,0.40851613879203796,0.6126978397369385,-0.35155296325683594
1684594535443209700,15.401209716796876,0.42562034726142883,0.7528914213180542,-0.4355469346046448
1684594535460093200,15.41809326171875,0.3959933817386627,0.8662069439888,-0.4590652287006378
1684594535476966700,15.434966552734375,0.29993483424186707,0.8862127661705017,-0.4069889783859253
1684594535493838300,15.45183837890625,0.1472185254096985,0.7631233930587769,-0.3090978264808655
1684594535510711000,15.4687109375,-0.005803219974040985,0.5459607839584351,-0.2295326143503189
1684594535527584000,15.485583984375,-0.096211276948452,0.35246923565864563,-0.19043724238872528
1684594535544457700,15.502457763671876,-0.0959058403968811,0.23884831368923187,-0.19776763021945953
1684594535561329700,15.51932958984375,-0.07208210229873657,0.19135354459285736,-0.17409659922122955
1684594535578202600,15.53620263671875,-0.11239920556545258,0.16600263118743896,-0.04077525436878204
1684594535595072500,15.553072509765625,-0.22708915174007416,-0.02428189292550087,0.09972374886274338
1684594535611951900,15.569951904296875,-0.3568980097770691,-0.3378084897994995,0.17379115521907806
1684594535628821000,15.586821044921875,-0.4720461070537567,-0.6311765313148499,0.22586742043495178
1684594535645694000,15.60369384765625,-0.5401576161384583,-0.8251262307167053,0.29107728600502014
1684594535662566700,15.620566650390625,-0.5233588218688965,-0.860556423664093,0.3407101035118103
1684594535679440400,15.6374404296875,-0.4260784983634949,-0.6852380633354187,0.36850446462631226
1684594535696312000,15.65431201171875,-0.30222558975219727,-0.46899178624153137,0.32360586524009705
1684594535713185000,15.67118505859375,-0.20082195103168488,-0.3617849349975586,0.20112738013267517
1684594535730058000,15.68805810546875,-0.14309518039226532,-0.35323283076286316,0.06933320313692093
1684594535746929700,15.7049296875,-0.13973543047904968,-0.4040873646736145,0.01710422709584236
1684594535763805700,15.7218056640625,-0.18249599635601044,-0.5577199459075928,0.07422012835741043
1684594535780676000,15.738676025390625,-0.20586158335208893,-0.7336491346359253,0.22999076545238495
1684594535797546200,15.755546142578124,-0.18341228365898132,-0.7709119319915771,0.37720927596092224
1684594535814425600,15.772425537109376,-0.156686931848526,-0.703411340713501,0.3926336467266083
1684594535831294700,15.789294677734375,-0.1560760736465454,-0.4775438904762268,0.318566232919693
1684594535848167400,15.80616748046875,-0.20265454053878784,-0.192422553896904,0.24908030033111572
1684594535865040400,15.823040283203126,-0.2713768780231476,-0.14844025671482086,0.247094988822937
1684594535881914400,15.839914306640624,-0.3032945990562439,-0.35750889778137207,0.3020728528499603
1684594535898785800,15.856785888671874,-0.27030786871910095,-0.5626068711280823,0.3738495409488678
1684594535915658800,15.87365869140625,-0.18539759516716003,-0.6088799238204956,0.4008803069591522
1684594535932531500,15.890531494140625,-0.06444628536701202,-0.6091853380203247,0.35643985867500305
1684594535949405400,15.907405517578125,0.012675453908741474,-0.5346598029136658,0.37629300355911255
1684594535966277400,15.92427734375,0.04963280260562897,-0.5303837656974792,0.40164390206336975
1684594535983150000,15.941150146484375,0.10155634582042694,-0.42531493306159973,0.34758231043815613
1684594536000022800,15.958022705078125,0.12232576310634613,-0.22510384023189545,0.2116648107767105
1684594536016896500,15.974896484375,0.0429132841527462,-0.078343465924263,0.08506298810243607
1684594536033768200,15.991768310546876,-0.09560041129589081,-0.044135015457868576,0
1684594536050641200,16.00864111328125,-0.19578230381011963,-0.026419922709465027,-0.06734789162874222
1684594536067514000,16.02551416015625,-0.2658790946006775,0.03787364438176155,-0.03833179548382759
1684594536084388000,16.04238818359375,-0.3176499307155609,0.07559457421302795,0.04856378585100174
1684594536101259500,16.059259521484375,-0.3352122902870178,0.09346238523721695,0.11972958594560623
1684594536118124800,16.076124755859375,-0.31001409888267517,0.08139779418706894,0.12522737681865692
1684594536135012400,16.093012451171877,-0.2513710558414459,0.07422012835741043,0.058948494493961334
1684594536151879200,16.109879150390626,-0.16554448008537292,0.16264286637306213,-0.043218716979026794
1684594536168751000,16.126751220703124,-0.08399397134780884,0.38637226819992065,-0.10766500234603882
1684594536185624000,16.1436240234375,-0.031001411378383636,0.5616905689239502,-0.15302173793315887
1684594536202496800,16.160496826171876,0.001679879380390048,0.5337435007095337,-0.2122756689786911
1684594536219370500,16.17737060546875,0.02076941914856434,0.3260493278503418,-0.20143280923366547
1684594536236242200,16.1942421875,0.056810468435287476,0.02886338345706463,-0.07330382615327835
1684594536253115100,16.211115234375,0.13790282607078552,-0.1287398487329483,0.0809396430850029
1684594536269987800,16.22798779296875,0.23518311977386475,-0.09865473955869675,0.13668109476566315
1684594536286861600,16.244861572265624,0.3139847218990326,-0.03084869496524334,0.09544769674539566
1684594536303733800,16.261733642578125,0.35842517018318176,-0.02382374368607998,0.020463986322283745
1684594536320606200,16.278606201171876,0.3790418803691864,0.01237002108246088,-0.05345070734620094
1684594536337476400,16.295476318359373,0.418748140335083,0.13744467496871948,-0.14065171778202057
1684594536354355500,16.31235546875,0.4657847583293915,0.3217732608318329,-0.21868975460529327
1684594536371224600,16.329224609375,0.44089198112487793,0.4590652287006378,-0.20570887625217438
1684594536388097300,16.34609716796875,0.3223841190338135,0.44226643443107605,-0.14706580340862274
1684594536404970500,16.362970458984375,0.17623461782932281,0.327729195356369,-0.1469130963087082
1684594536421833700,16.379833740234375,0.11682797968387604,0.3355177342891693,-0.20463985204696655
1684594536438716000,16.3967158203125,0.14798210561275482,0.4534147381782532,-0.23136521875858307
1684594536455588600,16.413588623046873,0.206777885556221,0.5342016816139221,-0.21212296187877655
1684594536472461600,16.430461669921876,0.24327708780765533,0.5655084848403931,-0.19517144560813904
1684594536489349600,16.447349609375,0.24526239931583405,0.5740606188774109,-0.21410827338695526
1684594536506207200,16.464207275390624,0.2223549485206604,0.5592471361160278,-0.25534167885780334
1684594536523080000,16.481079833984374,0.19654589891433716,0.5328271985054016,-0.25534167885780334
1684594536539953000,16.497952880859376,0.19562959671020508,0.5057964324951172,-0.21090123057365417
1684594536556826600,16.51482666015625,0.23350323736667633,0.4694499373435974,-0.1869247704744339
1684594536573698600,16.531698486328125,0.2825251817703247,0.432645320892334,-0.20631973445415497
1684594536590571000,16.548571044921875,0.30695977807044983,0.413555771112442,-0.2197587788105011
1684594536607444200,16.5654443359375,0.2893974184989929,0.40026944875717163,-0.1895209401845932
1684594536624318000,16.58231787109375,0.2370157092809677,0.34544429183006287,-0.15042556822299957
1684594536641189600,16.599189697265626,0.18249599635601044,0.2730567753314972,-0.13148874044418335
1684594536658062600,16.6160625,0.14584407210350037,0.2151772826910019,-0.14966198801994324
1684594536674935300,16.632935302734374,0.1488984078168869,0.21044307947158813,-0.18860463798046112
1684594536691809300,16.649809326171876,0.19288070499897003,0.2942843437194824,-0.2356412708759308
1684594536708681000,16.666680908203126,0.2324342280626297,0.4392121136188507,-0.2715296149253845
1684594536725551000,16.683551025390624,0.18829920887947083,0.508087158203125,-0.2736676335334778
1684594536742429400,16.700429443359376,0.05619960278272629,0.4607451260089874,-0.22479841113090515
1684594536759300400,16.71730029296875,-0.07941248267889023,0.3404046595096588,-0.1267545372247696
1684594536776172300,16.73417236328125,-0.15775595605373383,0.16111570596694946,-0.01771509274840355
1684594536793045000,16.751044921875,-0.1638645976781845,0.07864890247583389,0.05009094998240471
1684594536809917700,16.767917724609376,-0.15806138515472412,0.04612032696604729,0.09056077152490616
1684594536826791400,16.78479150390625,-0.182648703455925,-0.008857546374201775,0.1287398487329483
1684594536843663600,16.80166357421875,-0.23228150606155396,-0.12278391420841217,0.12919799983501434
1684594536860536000,16.8185361328125,-0.28099802136421204,-0.14645494520664215,0.12797626852989197
1684594536877406000,16.835406005859376,-0.3240640163421631,-0.1088867336511612,0.18051068484783173
1684594536894285800,16.852285888671876,-0.35705074667930603,-0.15882496535778046,0.27091872692108154
1684594536911154700,16.86915478515625,-0.3400992155075073,-0.21135938167572021,0.3214678466320038
1684594536928027400,16.88602734375,-0.28130343556404114,-0.22372940182685852,0.2883284091949463
1684594536944900400,16.902900390625,-0.22937989234924316,-0.2454151064157486,0.2171625941991806
1684594536961763800,16.919763916015626,-0.21319197118282318,-0.3376557528972626,0.20295998454093933
1684594536978645800,16.936645751953126,-0.2070833146572113,-0.48380526900291443,0.25442537665367126
1684594536995519000,16.95351904296875,-0.1774563491344452,-0.541532039642334,0.308792382478714
1684594537012391400,16.970391357421875,-0.1661553531885147,-0.55069500207901,0.3352122902870178
1684594537029265400,16.987265380859377,-0.1921171247959137,-0.5836817622184753,0.33796119689941406
1684594537046137300,17.004137451171875,-0.21853704750537872,-0.6214026808738708,0.31093040108680725
1684594537063010000,17.021010009765625,-0.22281309962272644,-0.5731443166732788,0.2793181240558624
1684594537079882800,17.0378828125,-0.21273382008075714,-0.4308127164840698,0.2802344262599945
1684594537096756500,17.054756591796874,-0.22113321721553802,-0.3520110845565796,0.3107776939868927
1684594537113628400,17.07162841796875,-0.2376265823841095,-0.36193767189979553,0.34804046154022217
1684594537130501000,17.088501220703126,-0.23671028017997742,-0.4053090810775757,0.32330042123794556
1684594537147363600,17.105363525390626,-0.19944749772548676,-0.34865134954452515,0.25671613216400146
1684594537164248000,17.122248046875,-0.1267545372247696,-0.18005253374576569,0.15317445993423462
1684594537181119500,17.139119384765625,-0.09682214260101318,-0.1010981947183609,0.08032877743244171
1684594537197992400,17.155992431640627,-0.15317445993423462,-0.1846340149641037,0.11133018881082535
1684594537214865200,17.172865234375,-0.22800545394420624,-0.27611109614372253,0.17272214591503143
1684594537231739000,17.18973876953125,-0.2623666226863861,-0.27030786871910095,0.20097467303276062
1684594537248610800,17.20661083984375,-0.2638937830924988,-0.1788308024406433,0.1976149082183838
1684594537265483800,17.22348388671875,-0.23380866646766663,-0.10064005106687546,0.1437060534954071
1684594537282356500,17.2403564453125,-0.17531833052635193,-0.12889257073402405,0.048105638474226
1684594537299230200,17.257230224609376,-0.12660181522369385,-0.20234911143779755,0.019547687843441963
1684594537316102100,17.27410205078125,-0.09804387390613556,-0.2047925740480423,0.06627888232469559
1684594537332974800,17.290974853515625,-0.08781187981367111,-0.08536841720342636,0.09392052888870239
1684594537349847600,17.30784765625,-0.11056660860776901,0.003512475173920393,0.040622539818286896
1684594537366721500,17.324721435546873,-0.1339322030544281,0.06505715101957321,-0.02932153269648552
1684594537383593500,17.341593505859375,-0.12629638612270355,0.16035212576389313,-0.06169738993048668
1684594537400466000,17.3584658203125,-0.09544769674539566,0.21792617440223694,-0.06963863968849182
1684594537417338400,17.37533837890625,-0.026572637259960175,0.2047925740480423,-0.07757988572120667
1684594537434213600,17.392213623046874,0.07009678333997726,0.1359175145626068,-0.07406741380691528
1684594537451084500,17.40908447265625,0.15760323405265808,-0.01771509274840355,-0.03436116874217987
1684594537467957200,17.425957275390626,0.24205535650253296,-0.08643743395805359,0.009621127508580685
1684594537484830200,17.442830322265625,0.32818734645843506,-0.0656680166721344,-0.01160643994808197
1684594537501702000,17.459701904296875,0.39706242084503174,-0.07773260027170181,-0.08888089656829834
1684594537518575600,17.47657568359375,0.43386703729629517,-0.10354165732860565,-0.13744467496871948
1684594537535448600,17.493448486328123,0.4363104999065399,-0.054367005825042725,-0.14645494520664215
1684594537552321300,17.5103212890625,0.3966042697429657,0.09529497474431992,-0.15622878074645996
1684594537569195300,17.5271953125,0.3113885521888733,0.26511552929878235,-0.18280142545700073
1684594537586067000,17.54406689453125,0.21013765037059784,0.351400226354599,-0.24037547409534454
1684594537602940000,17.56093994140625,0.1417207419872284,0.38499781489372253,-0.28466320037841797
1684594537619812600,17.5778125,0.1313360333442688,0.3497203588485718,-0.266642689704895
1684594537636686300,17.594686279296877,0.1748601794242859,0.2922990322113037,-0.20693060755729675
1684594537653558300,17.611558349609375,0.2399173229932785,0.3104722499847412,-0.17776179313659668
1684594537670431000,17.628430908203125,0.27091872692108154,0.4054618179798126,-0.21242839097976685
1684594537687303700,17.6453037109375,0.24465152621269226,0.5102251768112183,-0.28206703066825867
1684594537704178000,17.662177978515626,0.17852537333965302,0.5969680547714233,-0.313373863697052
1684594537721049300,17.67904931640625,0.11881329119205475,0.6279694437980652,-0.29016098380088806
1684594537737922000,17.695922119140626,0.10583240538835526,0.5558874011039734,-0.26419922709465027
1684594537754784300,17.7127841796875,0.15531249344348907,0.40882155299186707,-0.26313021779060364
1684594537771668700,17.729668701171875,0.24587325751781464,0.24587325751781464,-0.2675589919090271
1684594537788540700,17.746540771484376,0.34086281061172485,0.18341228365898132,-0.25014930963516235
1684594537805413600,17.76341357421875,0.4008803069591522,0.27030786871910095,-0.2301434874534607
1684594537822285000,17.78028515625,0.38377609848976135,0.4008803069591522,-0.22403483092784882
1684594537839161600,17.79716162109375,0.2817615866661072,0.4384485185146332,-0.23167064785957336
1684594537856032000,17.814031982421874,0.15531249344348907,0.36590829491615295,-0.22663100063800812
1684594537872904700,17.83090478515625,0.1007927656173706,0.19394971430301666,-0.19425514340400696
1684594537889777400,17.84777734375,0.1472185254096985,-0.012522737495601177,-0.14324790239334106
1684594537906651400,17.8646513671875,0.23579397797584534,-0.11285735666751862,-0.08552113175392151
1684594537923523300,17.8815234375,0.2987131178379059,-0.05390885844826698,-0.04459316283464432
1684594537940395800,17.898395751953124,0.28466320037841797,0.0858265683054924,-0.04459316283464432
1684594537957268200,17.915268310546875,0.16493362188339233,0.18997909128665924,-0.06841690838336945
1684594537974143000,17.93214306640625,-0.007177666760981083,0.14004085958003998,-0.09773843735456467
1684594537991014100,17.94901416015625,-0.12186761945486069,-0.03481931984424591,-0.10934487730264664
1684594538007887000,17.96588720703125,-0.15745051205158234,-0.24388794600963593,-0.07452555745840073
1684594538024760000,17.982760009765624,-0.1791362315416336,-0.3712533414363861,0.02733621932566166
1684594538041630200,17.999630126953125,-0.23197607696056366,-0.40591996908187866,0.1408044397830963
1684594538058505700,18.016505615234376,-0.3075706362724304,-0.32849279046058655,0.19333885610103607
1684594538075375000,18.033375,-0.4092797040939331,-0.1866193264722824,0.18814650177955627
1684594538092254200,18.050254150390625,-0.5157229900360107,-0.06414084881544113,0.17516560852527618
1684594538109125000,18.067125,-0.5732970237731934,-0.007177666760981083,0.17241671681404114
1684594538125996500,18.08399658203125,-0.5396994352340698,-0.043676864355802536,0.16661348938941956
1684594538142869500,18.100869384765623,-0.42439863085746765,-0.14706580340862274,0.1745547503232956
1684594538159742500,18.117742431640625,-0.2880229651927948,-0.2796235680580139,0.20570887625217438
1684594538176616200,18.1346162109375,-0.18707747757434845,-0.38469240069389343,0.23579397797584534
1684594538193488000,18.15148779296875,-0.12476922571659088,-0.4021020531654358,0.23426681756973267
1684594538210360800,18.16836083984375,-0.08597928285598755,-0.3113885521888733,0.2252565622329712
1684594538227233800,18.18523388671875,-0.09407325088977814,-0.27000242471694946,0.2347249686717987
1684594538244107500,18.202107421875,-0.14676037430763245,-0.3891211748123169,0.3119994103908539
1684594538260979200,18.218979248046875,-0.19074267148971558,-0.6160575747489929,0.3995058834552765
1684594538277852000,18.235851806640625,-0.17760907113552094,-0.8069530129432678,0.3856086730957031
1684594538294724900,18.252724853515623,-0.10751228034496307,-0.7915286421775818,0.29825496673583984
1684594538311598600,18.2695986328125,-0.022449297830462456,-0.5520694851875305,0.206777885556221
1684594538328470300,18.28647021484375,0.0010690141934901476,-0.2942843437194824,0.14737124741077423
1684594538345343500,18.303343505859374,-0.06887505948543549,-0.25732699036598206,0.15347988903522491
1684594538362216200,18.32021630859375,-0.16737708449363708,-0.3156646192073822,0.20983220636844635
1684594538379090000,18.33708984375,-0.23319780826568604,-0.3594942092895508,0.27061331272125244
1684594538395961600,18.353961669921876,-0.247094988822937,-0.34697145223617554,0.2942843437194824
1684594538412834300,18.370834228515626,-0.18417587876319885,-0.21624629199504852,0.21242839097976685
1684594538429707300,18.387707275390625,-0.08155050873756409,-0.00045814894838258624,0.05803219974040985
1684594538446581000,18.4045810546875,-0.03130684420466423,0.12965615093708038,-0.06872233748435974
1684594538463453000,18.421452880859373,-0.06918048858642578,0.05803219974040985,-0.08750644326210022
1684594538480325600,18.43832568359375,-0.15821409225463867,-0.06948592513799667,-0.01817324012517929
1684594538497199400,18.455199462890626,-0.23640485107898712,-0.1768454909324646,0.03390302136540413
1684594538514071300,18.4720712890625,-0.2506074607372284,-0.1644754707813263,0.031154127791523933
1684594538532934700,18.4909345703125,-0.16203200817108154,0.8536841869354248,0.5268712639808655
1684594538547811600,18.5058115234375,-0.09957103431224823,0.017562376335263252,0.36422839760780334
1684594538564689700,18.522689697265626,-0.04535674303770065,-0.11728613078594208,0.27519479393959045
1684594538581554000,18.539553955078127,0.0009162978967651725,-0.07528914511203766,0.03878994286060333
1684594538598435300,18.556435302734375,0.009926560334861279,-0.054367005825042725,-0.1540907621383667
1684594538615305200,18.57330517578125,0.018325956538319588,-0.04963280260562897,-0.32528573274612427
1684594538632183600,18.59018359375,0.05650503560900688,0.0529925599694252,-0.5288565754890442
1684594538649054700,18.6070546875,0.06383541971445084,0.4046982228755951,-0.42760565876960754
1684594538665926400,18.623926513671876,0.055894169956445694,0.34926220774650574,-0.15271630883216858
1684594538682799900,18.6407998046875,0.17088955640792847,0.044135015457868576,0.0024434609804302454
1684594538699672000,18.657672119140624,0.3562871515750885,-0.09300423413515091,0.02321287989616394
1684594538716545800,18.6745458984375,0.461355984210968,-0.08475755155086517,-0.001832595793530345
1684594538733417700,18.691417724609376,0.45295658707618713,0.017562376335263252,-0.04214970022439957
1684594538750290400,18.70829052734375,0.3885102868080139,0.18081611394882202,-0.1186605766415596
1684594540412253700,20.370253662109373,0.5306891798973083,-0.06765332818031311,-0.10461067408323288
1684594540424906000,20.382906005859375,0.4957171380519867,0.09422596544027328,-0.07422012835741043
1684594540441769000,20.39976904296875,0.3706424832344055,0.2710714638233185,-0.03329215571284294
1684594540458652000,20.41665185546875,0.26572638750076294,0.32849279046058655,-0.10873401165008545
1684594540475525000,20.433525146484374,0.21991148591041565,0.3081815242767334,-0.2047925740480423
1684594540492397300,20.450397216796876,0.21960605680942535,0.2370157092809677,-0.2393064647912979
1684594540509270800,20.467270751953127,0.2629774808883667,0.19715675711631775,-0.23640485107898712
1684594540526143000,20.48414306640625,0.3367394804954529,0.24816401302814484,-0.23839016258716583
1684594540543016400,20.501016357421875,0.3643811047077179,0.37797287106513977,-0.25244006514549255
1684594540559888600,20.517888671875,0.30146199464797974,0.5540547966957092,-0.29046642780303955
1684594540576761900,20.534761962890624,0.16844609379768372,0.6963863968849182,-0.34544429183006287
1684594540593634300,20.55163427734375,0.028405234217643738,0.7564038634300232,-0.37690386176109314
1684594540610507500,20.568507568359376,-0.046731192618608475,0.7628179788589478,-0.3637702465057373
1684594540627379700,20.585379638671874,-0.03298672288656235,0.7066183686256409,-0.32559117674827576
1684594540644253000,20.6022529296875,0.06398813426494598,0.6488916277885437,-0.2822197377681732
1684594540661125400,20.61912548828125,0.20173825323581696,0.6214026808738708,-0.25045475363731384
1684594540677998300,20.635998291015625,0.3225368559360504,0.6056728959083557,-0.23854288458824158
1684594540694870800,20.652870849609375,0.38026362657546997,0.5923865437507629,-0.23060162365436554
1684594540711748000,20.669748046875,0.36071592569351196,0.5693264007568359,-0.22372940182685852
1684594540728616400,20.686616455078124,0.2756529450416565,0.46853363513946533,-0.23258693516254425
1684594540745490000,20.703489990234374,0.18478673696517944,0.35613444447517395,-0.2177734673023224
1684594540762361300,20.720361328125,0.14767667651176453,0.2802344262599945,-0.16982053220272064
1684594540779233500,20.737233642578126,0.16462817788124084,0.2122756689786911,-0.14614951610565186
1684594540796109300,20.754109375,0.18829920887947083,0.15836681425571442,-0.16798794269561768
1684594540812981000,20.77098095703125,0.16462817788124084,0.1368338167667389,-0.16111570596694946
1684594540829853200,20.787853271484376,0.04138612002134323,0.08155050873756409,-0.009926560334861279
1684594540846726400,20.804726318359375,-0.15241087973117828,-0.2370157092809677,0.1840231567621231
1684594540863598800,20.821598876953125,-0.2893974184989929,-0.6475171446800232,0.27122417092323303
1684594540880472000,20.83847216796875,-0.3176499307155609,-0.8642216324806213,0.27748554944992065
1684594540897346000,20.855345947265626,-0.28878653049468994,-0.8429940342903137,0.275347501039505
1684594540914215700,20.872215576171875,-0.2692388594150543,-0.6363688707351685,0.3013092875480652
1684594540931089700,20.889089599609374,-0.3263547718524933,-0.4554000496864319,0.3286454975605011
1684594540947963100,20.905963134765624,-0.45005497336387634,-0.3962988257408142,0.3147483170032501
1684594540964824800,20.922824951171876,-0.5673410892486572,-0.42730024456977844,0.2252565622329712
1684594540981697800,20.93969775390625,-0.5978843569755554,-0.39675697684288025,0.08765916526317596
1684594540998581200,20.956581298828127,-0.5135849714279175,-0.22663100063800812,0.00733038317412138
1684594541015454200,20.9734541015625,-0.40286561846733093,-0.10919216275215149,0.09376781433820724
1684594541032326400,20.990326416015623,-0.4075998365879059,-0.29856038093566895,0.3474296033382416
1684594541049200000,21.0072001953125,-0.4801400899887085,-0.6747006773948669,0.5164865851402283
1684594541066072000,21.024072021484375,-0.4486805200576782,-0.7980954647064209,0.4957171380519867
1684594541082945500,21.040945556640626,-0.2977968156337738,-0.6258314251899719,0.3597996234893799
1684594541099817700,21.057817626953124,-0.12461651116609573,-0.3959933817386627,0.2168571650981903
1684594541116691000,21.07469091796875,-0.04489859566092491,-0.18127426505088806,0.18249599635601044
1684594541133563400,21.0915634765625,-0.07757988572120667,-0.18356500566005707,0.266642689704895
1684594541150436600,21.1084365234375,-0.09514226019382477,-0.313373863697052,0.32070425152778625
1684594541167308800,21.125308837890625,-0.08399397134780884,-0.3761402666568756,0.35475999116897583
1684594541184182300,21.142182373046875,-0.09147707372903824,-0.5209153294563293,0.36529740691185
1684594541201054500,21.159054443359373,-0.08704829961061478,-0.7874053120613098,0.32268956303596497
1684594541217927700,21.175927734375,-0.022602014243602753,-0.912021815776825,0.25335636734962463
1684594541234799900,21.1927998046875,0.10048733651638031,-0.5500841736793518,0.2347249686717987
1684594541251673300,21.20967333984375,0.2525927722454071,-0.0633772686123848,0.09300423413515091
1684594541268545500,21.226545654296874,0.3223841190338135,0.21013765037059784,-0.13041973114013672
1684594541285418800,21.243418701171876,0.2854267954826355,0.18387043476104736,-0.2922990322113037
1684594541302291200,21.260291259765626,0.2295326143503189,0.20830504596233368,-0.31749722361564636
1684594541319164400,21.277164306640625,0.20861047506332397,0.30634891986846924,-0.2632829248905182
1684594541336036600,21.29403662109375,0.19578230381011963,0.3536909818649292,-0.19364428520202637
1684594541352910000,21.31091015625,0.14935655891895294,0.3582724630832672,-0.17073683440685272
1684594541369782300,21.3277822265625,0.08781187981367111,0.2984076738357544,-0.20066922903060913
1684594541386655500,21.344655517578126,0.09896016865968704,0.33857205510139465,-0.28756481409072876
1684594541403528000,21.36152783203125,0.2070833146572113,0.5230533480644226,-0.38576140999794006
1684594541420401200,21.378401123046874,0.3165809214115143,0.6198754906654358,-0.39156460762023926
1684594541437273000,21.395273193359376,0.3543018400669098,0.5670356750488281,-0.33139440417289734
1684594541454146600,21.412146484375,0.3217732608318329,0.5053382515907288,-0.25335636734962463
1684594541471018800,21.429018798828125,0.2626720666885376,0.4709770977497101,-0.23258693516254425
1684594541487892200,21.445892333984375,0.23060162365436554,0.5059491395950317,-0.2886338233947754
1684594541504764400,21.462764404296873,0.22663100063800812,0.611934244632721,-0.31932979822158813
1684594541521642200,21.479642333984376,0.22418753802776337,0.6632469296455383,-0.2838996350765228
1684594541538510000,21.496510009765625,0.23029619455337524,0.6276640295982361,-0.24465152621269226
1684594541555383300,21.51338330078125,0.25366178154945374,0.5551238059997559,-0.24495697021484375
1684594541572255500,21.53025537109375,0.2932153046131134,0.499382346868515,-0.2877175211906433
1684594541589129000,21.54712890625,0.3341432809829712,0.4856378734111786,-0.33658674359321594
1684594541606001200,21.564001220703126,0.3306308090686798,0.4196644127368927,-0.3543018400669098
1684594541622874600,21.58087451171875,0.25732699036598206,0.29886582493782043,-0.3367394804954529
1684594541639746800,21.597746826171875,0.15134187042713165,0.16783522069454193,-0.303600013256073
1684594541656619800,21.614619873046873,0.058337632566690445,0.0529925599694252,-0.2617557644844055
1684594541673492200,21.6314921875,-0.013591751456260681,-0.04382958263158798,-0.18188512325286865
1684594541690365400,21.648365478515625,-0.08521570265293121,-0.11438451707363129,-0.052381694316864014
1684594541707238000,21.66523779296875,-0.17302757501602173,-0.23197607696056366,0.08277224004268646
1684594541724110800,21.68211083984375,-0.2535090744495392,-0.3793473243713379,0.14340060949325562
1684594541740983300,21.6989833984375,-0.3168863356113434,-0.4717406928539276,0.14248432219028473
1684594541757844200,21.71584423828125,-0.3816380500793457,-0.5459607839584351,0.13637566566467285
1684594541774731500,21.7327314453125,-0.45692721009254456,-0.6111706495285034,0.15515977144241333
1684594541791602200,21.749602294921875,-0.5464189648628235,-0.6611089110374451,0.21762074530124664
1684594541808474400,21.766474365234377,-0.6363688707351685,-0.6707300543785095,0.30405816435813904
1684594541825345300,21.78334521484375,-0.6852380633354187,-0.6427829265594482,0.342237263917923
1684594541842222600,21.80022265625,-0.6551529765129089,-0.5958990454673767,0.2935207486152649
1684594541859093500,21.817093505859376,-0.55069500207901,-0.4951062798500061,0.2431243658065796
1684594541875965700,21.833965576171874,-0.4098905920982361,-0.38209620118141174,0.24007004499435425
1684594541892839000,21.8508388671875,-0.28038713335990906,-0.3721696436405182,0.22067506611347198
1684594541909711000,21.867711181640626,-0.19685132801532745,-0.44455718994140625,0.16951510310173035
1684594541926584300,21.884584228515624,-0.18295414745807648,-0.5372560024261475,0.1814269721508026
1684594541943456500,21.90145654296875,-0.19303341209888458,-0.6123924255371094,0.2793181240558624
1684594541960330000,21.918330078125,-0.1915062516927719,-0.6620252132415771,0.3831652104854584
1684594541977199000,21.93519921875,-0.16294831037521362,-0.6479753255844116,0.4583016633987427
1684594541994078000,21.952077880859374,-0.11316278576850891,-0.5557346343994141,0.494189977645874
1684594542010947600,21.968947509765623,-0.05543602257966995,-0.3952298164367676,0.4807509481906891
1684594542027821000,21.985821044921874,0.04444044828414917,-0.13988813757896423,0.35582900047302246
1684594542044693200,22.002693359375,0.15592335164546967,0.0757472887635231,0.18539759516716003
1684594542061571600,22.019571533203123,0.23518311977386475,0.02229658141732216,0.05390885844826698
1684594542078437600,22.036437744140624,0.2747366428375244,-0.19822576642036438,0.06612616032361984
1684594542095313400,22.0533134765625,0.3599523603916168,-0.2932153046131134,0.07452555745840073
1684594542112184300,22.070184326171876,0.494189977645874,-0.1840231567621231,0.01542434748262167
1684594542129057800,22.087057861328127,0.5413793325424194,-0.012980886735022068,-0.006261368747800589
1684594542145930000,22.103929931640625,0.4389066696166992,0.06322455406188965,0.02626720629632473
1684594542162803200,22.12080322265625,0.3019201457500458,0.14248432219028473,0.005345070734620094
1684594542179675600,22.137675537109374,0.2142609804868698,0.3149010241031647,-0.09178250283002853
1684594542196548600,22.154548583984376,0.15561792254447937,0.49693888425827026,-0.21441370248794556
1684594542213421000,22.171421142578126,0.10033461451530457,0.6875288486480713,-0.27840182185173035
1684594542230294000,22.1882939453125,0.05665775015950203,0.7147123217582703,-0.308792382478714
1684594542247166700,22.205166748046874,0.04688390716910362,0.547182559967041,-0.3510948121547699
1684594542264039400,22.222039306640625,0.07024950534105301,0.4395175576210022,-0.34208452701568604
1684594542280912400,22.238912353515627,0.09804387390613556,0.493731826543808,-0.24633140861988068
1684594542297785300,22.255785400390625,0.12782354652881622,0.68325275182724,-0.1540907621383667
1684594542314657500,22.272657470703123,0.14004085958003998,0.9395107626914978,-0.12751811742782593
1684594542331531000,22.289531005859374,0.10613783448934555,1.0653489828109741,-0.1872301995754242
1684594542348403200,22.3064033203125,0.03039054572582245,1.0070114135742188,-0.28680121898651123
1684594542365276700,22.323276611328126,-0.03985895588994026,0.8480336666107178,-0.3491095006465912
1684594542382148600,22.340148681640624,-0.027030786499381065,0.6540839672088623,-0.34513887763023376
1684594542399022000,22.35702197265625,0.1111774742603302,0.484416127204895,-0.29733866453170776
1684594542415894300,22.373894287109376,0.31322115659713745,0.36163222789764404,-0.24984388053417206
1684594542432767500,22.390767578125,0.4703662395477295,0.33796119689941406,-0.23487769067287445
1684594542449640000,22.407639892578125,0.4905247986316681,0.38438695669174194,-0.25045475363731384
1684594542466513200,22.42451318359375,0.3588833212852478,0.4153883755207062,-0.2814561724662781
1684594542483385300,22.44138525390625,0.11209376901388168,0.3608686327934265,-0.2893974184989929
1684594542500272400,22.4582724609375,-0.1342376321554184,0.21624629199504852,-0.20082195103168488
1684594542517125400,22.47512548828125,-0.2961169183254242,-0.026419922709465027,-0.02871066704392433
1684594542534004200,22.492004150390624,-0.36789360642433167,-0.3023782968521118,0.14004085958003998
1684594542550876400,22.50887646484375,-0.34574973583221436,-0.4778493344783783,0.23945917189121246
1684594542567749600,22.52574951171875,-0.27809640765190125,-0.5216789245605469,0.29565876722335815
1684594542584622000,22.5426220703125,-0.22861631214618683,-0.5609270334243774,0.3257438838481903
1684594542601495000,22.5594951171875,-0.21441370248794556,-0.6192646622657776,0.2974913716316223
