time,seconds_elapsed,z,y,x
1684594520000480500,-0.04151953125,9.159725189208984,-2.499901533126831,-4.529613494873047
1684594520017366300,-0.0246337890625,9.176474571228027,-3.087937593460083,-4.549354076385498
1684594520034239000,-0.007760986328125,10.244272232055664,-2.8689942359924316,-5.44845724105835
1684594520051112000,0.00911181640625,9.235098838806152,-3.2177481651306152,-6.037689685821533
1684594520067984400,0.025984375,9.065208435058594,-2.5393829345703125,-5.735595703125
1684594520084859600,0.042859619140625,9.206384658813477,-2.248655080795288,-3.8255252838134766
1684594520101734000,0.05973388671875,8.13081169128418,-2.8492536544799805,-3.1519455909729004
1684594520118602500,0.0766025390625,9.991230964660645,-2.844467878341675,-3.486342668533325
1684594520135475200,0.09347509765625,10.764710426330566,-1.7527425289154053,-5.178666591644287
1684594520153057500,0.1110576171875,10.731809616088867,-0.7722834944725037,-5.364109992980957
1684594520169202700,0.12720263671875,11.982059478759766,1.3567304611206055,-4.021138668060303
1684594520186076700,0.14407666015625,10.897512435913086,2.692523717880249,-1.612762451171875
1684594520202955000,0.160955078125,9.66520881652832,1.929213285446167,-0.8482556343078613
1684594520219825400,0.177825439453125,9.707083702087402,1.0277173519134521,-1.5864413976669312
1684594520236697000,0.194697021484375,10.135398864746094,0.2350948303937912,-2.347957134246826
1684594520253569800,0.21156982421875,10.339386940002441,-0.5665007829666138,-3.1866414546966553
1684594520270442800,0.22844287109375,9.54377269744873,-0.7674978375434875,-3.933800458908081
1684594520287315700,0.245315673828125,9.2919282913208,-1.1228320598602295,-3.0825538635253906
1684594520304187600,0.262187744140625,6.975078105926514,-0.355932354927063,-2.8384859561920166
1684594520321060600,0.279060546875,4.454239368438721,0.3068794906139374,-2.8773691654205322
1684594520337933000,0.29593310546875,10.033703804016113,4.046263217926025,-2.8175487518310547
1684594520354805800,0.3128056640625,14.647065162658691,7.197012424468994,-1.2370892763137817
1684594520371677700,0.329677734375,7.884350776672363,1.212562918663025,-2.410170555114746
1684594520388544300,0.346544189453125,10.26341438293457,-0.7746763229370117,-1.932802438735962
1684594520405423400,0.36342333984375,8.073383331298828,1.6163517236709595,-1.6055840253829956
1684594520422285600,0.38028564453125,7.9489569664001465,2.781656265258789,-1.1736794710159302
1684594520439166000,0.397166015625,9.279366493225098,2.9168508052825928,-1.5032907724380493
1684594520456043800,0.414043701171875,8.188239097595215,0.5150550603866577,-2.8558337688446045
1684594520472913700,0.43091357421875,8.087141990661621,1.7509479522705078,-1.9836499691009521
1684594520489786400,0.447786376953125,7.485945701599121,1.8041882514953613,-1.6007983684539795
1684594520506656300,0.46465625,9.915857315063477,1.4727823734283447,-3.7058839797973633
1684594520523534000,0.4815341796875,12.742977142333984,1.8801604509353638,-3.9529430866241455
1684594520540404200,0.498404296875,12.857234001159668,2.8630123138427734,-1.5828521251678467
1684594520557277000,0.51527685546875,8.912068367004395,4.23230504989624,-3.177070379257202
1684594520574149000,0.532149169921875,8.073383331298828,0.7447660565376282,-4.5786662101745605
1684594520591021800,0.549021728515625,4.036093711853027,-1.2484551668167114,-3.4157543182373047
1684594520607894500,0.56589453125,0.5042873620986938,-2.0793628692626953,-1.470389485359192
1684594520624767500,0.582767578125,10.514062881469727,-4.079164505004883,1.7629120349884033
1684594520641630200,0.599630126953125,7.685746192932129,-1.5314065217971802,-2.145763635635376
1684594520658512600,0.6165126953125,1.3902299404144287,-1.2335001230239868,-7.810771465301514
1684594520675387400,0.633387451171875,8.781659126281738,-4.372883319854736,-6.192625045776367
1684594520692257800,0.6502578125,12.543176651000977,-0.6131607890129089,-2.6015963554382324
1684594520709129700,0.667129638671875,6.553941249847412,3.4205398559570312,-2.355733871459961
1684594520726002400,0.68400244140625,8.779864311218262,1.5158531665802002,-2.423929452896118
1684594520742866000,0.700865966796875,8.12542724609375,-0.5078766345977783,-2.87198543548584
1684594520759748400,0.717748291015625,5.7511491775512695,-0.6843472719192505,-3.7872400283813477
1684594520776620300,0.734620361328125,3.284747362136841,-1.5672988891601562,-6.68016242980957
1684594520793490400,0.751490478515625,5.86421012878418,0.016749758273363113,-8.72064208984375
1684594520810368300,0.7683681640625,4.680361270904541,2.4837498664855957,-7.3878397941589355
1684594520827235800,0.78523583984375,6.93619441986084,1.3100703954696655,-5.468796253204346
1684594520844113200,0.802113037109375,7.65583610534668,0.38285163044929504,-6.4941205978393555
1684594520860983800,0.81898388671875,7.983652591705322,-0.39481574296951294,-7.475776195526123
1684594520877856300,0.835856201171875,8.157731056213379,-0.9296116232872009,-7.739584922790527
1684594520894729200,0.852729248046875,8.091329574584961,0.004785645287483931,-6.833901405334473
1684594520911601200,0.86960107421875,7.496115207672119,0.9619147181510925,-6.637091636657715
1684594520928474000,0.88647412109375,7.574480056762695,0.4217349886894226,-6.608976364135742
1684594520945346300,0.90334619140625,8.575278282165527,-0.4169493317604065,-7.049853801727295
1684594520962219300,0.92021923828125,9.10827922821045,-0.28594231605529785,-6.537191390991211
1684594520979091700,0.937091796875,8.568697929382324,-0.14057832956314087,-6.589833736419678
1684594520995971000,0.95397119140625,8.011170387268066,-0.19740787148475647,-6.260222434997559
1684594521012826400,0.970826416015625,7.737192153930664,0.19980068504810333,-6.010770320892334
1684594521029709600,0.98770947265625,8.355138778686523,-0.3451646566390991,-6.738786697387695
1684594521046582000,1.00458203125,9.20279598236084,0.0933200865983963,-7.187440872192383
1684594521063459800,1.0214599609375,9.053244590759277,0.3361915946006775,-6.818946361541748
1684594521080327200,1.0383271484375,8.85523796081543,-0.16510476171970367,-6.742974281311035
1684594521097200000,1.0552001953125,8.493324279785156,-0.3601198196411133,-6.69571590423584
1684594521114074000,1.07207421875,8.896514892578125,0.2835494875907898,-6.440880298614502
1684594521130943700,1.08894384765625,8.044071197509766,-0.15314064919948578,-6.604788780212402
1684594521147815400,1.1058154296875,6.468397617340088,0.3116651475429535,-6.997211456298828
1684594521164693200,1.122693359375,6.764509677886963,1.319043517112732,-6.828517436981201
1684594521181553200,1.13955322265625,6.832705020904541,1.0121639966964722,-6.68016242980957
1684594521198435300,1.156435302734375,7.036693096160889,0.06520441919565201,-6.600003242492676
1684594521215308300,1.173308349609375,7.160521984100342,0.0771685317158699,-5.9539408683776855
1684594521232179200,1.19017919921875,7.241877555847168,0.11066804826259613,-6.020939826965332
1684594521249055000,1.207054931640625,6.760322093963623,0.1136590763926506,-6.623931407928467
1684594521265926000,1.22392578125,6.383452415466309,0.04905286431312561,-7.146164894104004
1684594521282798600,1.240798583984375,6.387042045593262,0.4133601188659668,-7.537989616394043
1684594521299671300,1.25767138671875,6.419943332672119,0.6346961855888367,-8.030911445617676
1684594521316543200,1.274543212890625,5.970092296600342,0.8506484627723694,-7.882555961608887
1684594521333416400,1.29141650390625,6.350551128387451,0.02871387079358101,-8.256434440612793
1684594521350288600,1.30828857421875,6.274579048156738,-1.119242787361145,-8.042277336120605
1684594521367161900,1.325161865234375,4.400400638580322,-2.35872483253479,-8.891729354858398
1684594521384021200,1.342021240234375,6.789036273956299,-0.9320043921470642,-8.96112060546875
1684594521400906800,1.35890673828125,7.700103282928467,0.09092725813388824,-8.117053031921387
1684594521417776600,1.375776611328125,5.701498031616211,-2.145763635635376,-7.723433494567871
1684594521434654200,1.392654296875,6.994220733642578,-4.354339122772217,-9.136993408203125
1684594521451524600,1.409524658203125,5.929414749145508,-2.9114668369293213,-9.475577354431152
1684594521468394800,1.426394775390625,4.9262237548828125,-3.793820381164551,-9.113663673400879
1684594521485272300,1.443272216796875,3.0789644718170166,-3.4002010822296143,-9.257830619812012
1684594521502142700,1.460142822265625,1.4985052347183228,-3.063411235809326,-9.937392234802246
1684594521519014700,1.4770146484375,2.2546372413635254,-3.5084762573242188,-10.73719310760498
1684594521535887400,1.493887451171875,3.2590243816375732,-4.160520553588867,-11.120044708251953
1684594521552764200,1.51076416015625,3.5066816806793213,-4.105485439300537,-10.674980163574219
1684594521569633300,1.52763330078125,2.449054002761841,-4.432703971862793,-10.326226234436035
1684594521586505500,1.54450537109375,1.353141188621521,-4.634299278259277,-10.49970531463623
1684594521603378200,1.561378173828125,1.1563315391540527,-5.527420520782471,-10.453045845031738
1684594521620251000,1.5782509765625,1.4662020206451416,-6.7208404541015625,-9.650253295898438
1684594521637123800,1.595123779296875,1.0133603811264038,-6.817749977111816,-8.650053977966309
1684594521653995300,1.611995361328125,1.158724308013916,-7.5272216796875,-7.995018482208252
1684594521670857700,1.628857666015625,1.5960127115249634,-8.314460754394531,-7.335197925567627
1684594521687741200,1.6457412109375,2.4879374504089355,-9.416953086853027,-7.130611419677734
1684594521704602000,1.66260205078125,2.596810817718506,-10.318449020385742,-8.011768341064453
1684594521721490000,1.679489990234375,1.0217353105545044,-10.039087295532227,-8.907281875610352
1684594521738356000,1.69635595703125,-0.43609192967414856,-9.317052841186523,-8.950352668762207
1684594521755232500,1.713232421875,-0.23629122972488403,-9.201001167297363,-7.907082557678223
1684594521772103400,1.730103515625,0.6263213157653809,-9.193224906921387,-6.466004848480225
1684594521788976000,1.74697607421875,1.222732424736023,-10.401001930236816,-5.882754325866699
1684594521805849000,1.76384912109375,1.4297115802764893,-10.817353248596191,-6.113063812255859
1684594521822722000,1.78072216796875,-1.2406785488128662,-10.914860725402832,-7.512266635894775
1684594521839586800,1.7975869140625,-1.755733609199524,-11.01296615600586,-7.746763229370117
1684594521856467000,1.814467041015625,-1.0713863372802734,-11.513664245605469,-7.244868755340576
1684594521873337000,1.831337158203125,0.4211367964744568,-11.405987739562988,-6.487540245056152
1684594521890215000,1.84821484375,0.9080761671066284,-10.487741470336914,-5.251647472381592
1684594521907082200,1.865082275390625,-0.48873403668403625,-9.652647018432617,-4.9160542488098145
1684594521923957200,1.881957275390625,-2.3270199298858643,-9.08554744720459,-5.648856163024902
1684594521940830200,1.898830322265625,-3.6843485832214355,-9.474979400634766,-6.774679183959961
1684594521957703000,1.915702880859375,-3.243471145629883,-9.90987491607666,-7.415955543518066
1684594521974575900,1.932575927734375,-2.861815929412842,-8.86780071258545,-6.1944193840026855
1684594521991440000,1.94943994140625,-2.225325107574463,-8.45444107055664,-4.216751575469971
1684594522008320500,1.966320556640625,-1.3316057920455933,-7.762914657592773,-2.6841487884521484
1684594522025193000,1.98319287109375,-2.0440688133239746,-7.519444942474365,-1.7700905799865723
1684594522042066200,2.000066162109375,-2.915654420852661,-7.6528449058532715,-2.770888566970825
1684594522058927400,2.01692724609375,-3.1920254230499268,-7.629515171051025,-4.086941242218018
1684594522075811000,2.03381103515625,-2.691925525665283,-6.3601226806640625,-3.8841493129730225
1684594522092683800,2.050683837890625,-2.0027925968170166,-5.881557941436768,-2.9455647468566895
1684594522109556200,2.06755615234375,-1.5930216312408447,-5.790032386779785,-1.9830517768859863
1684594522126428400,2.084428466796875,-2.624328136444092,-4.60558557510376,-0.4408775866031647
1684594522143298800,2.101298828125,-4.387240409851074,-3.8057844638824463,-0.5892325639724731
1684594522160172300,2.11817236328125,-5.413163185119629,-3.7537405490875244,-1.0061819553375244
1684594522177051400,2.135051513671875,-4.524827480316162,-5.139782905578613,-0.4570291340351105
1684594522193916400,2.15191650390625,-5.656034469604492,-7.296912670135498,-0.40737804770469666
1684594522210794200,2.168794189453125,-4.219144344329834,-5.412564754486084,1.0887342691421509
1684594522227664400,2.185664306640625,-1.2903295755386353,-6.744170665740967,2.3234307765960693
1684594522244537000,2.202537109375,-0.38763725757598877,-6.848856449127197,1.0701899528503418
1684594522261419000,2.2194189453125,0.10827522724866867,-6.705885410308838,-1.1838489770889282
1684594522278282500,2.236282470703125,2.593221426010132,-8.933005332946777,-0.6394818425178528
1684594522295154700,2.25315478515625,3.1280174255371094,-8.068597793579102,0.8835497498512268
1684594522312027600,2.270027587890625,3.2440693378448486,-9.686744689941406,1.7048860788345337
1684594522328900000,2.286900146484375,0.5904290080070496,-10.49671459197998,2.042274236679077
1684594522345772500,2.3037724609375,-0.21355941891670227,-12.241681098937988,3.0687949657440186
1684594522362645200,2.320645263671875,-0.7549355626106262,-12.751352310180664,3.077768087387085
1684594522379518200,2.337518310546875,-1.155135154724121,-12.79322624206543,1.2681959867477417
1684594522396390100,2.35439013671875,0.6185446381568909,-12.568899154663086,1.0109676122665405
1684594522413252400,2.37125244140625,0.2919243574142456,-11.993425369262695,0.786640465259552
1684594522430135800,2.3881357421875,-0.4737788736820221,-11.311470985412598,0.3852444589138031
1684594522447008500,2.405008544921875,-0.5575276613235474,-9.527621269226074,0.28175488114356995
1684594522463884000,2.421884033203125,-0.9774680733680725,-8.154141426086426,-1.7270197868347168
1684594522480750000,2.43875,-1.9776679277420044,-8.392227172851562,-2.6422743797302246
1684594522497623300,2.455623291015625,-2.93001127243042,-7.92861795425415,0.2967100143432617
1684594522514491000,2.472490966796875,-2.9730820655822754,-8.986844062805176,-0.7334001660346985
1684594522531371300,2.489371337890625,-2.699103832244873,-12.997214317321777,0.6263213157653809
1684594522548241400,2.506241455078125,1.0169496536254883,-14.137992858886719,-0.7280163168907166
1684594522565119200,2.523119140625,1.301695466041565,-12.751352310180664,0.6185446381568909
1684594522581989400,2.5399892578125,-6.378068923950195,-11.632108688354492,0.381655216217041
1684594522598860800,2.55686083984375,-8.592626571655273,-12.367303848266602,-0.9128618240356445
1684594522615735300,2.5737353515625,-3.7884364128112793,-9.034700393676758,-1.4422738552093506
1684594522632606700,2.590606689453125,-2.830111026763916,-6.7106709480285645,0.48035913705825806
1684594522649479700,2.607479736328125,-1.8831514120101929,-6.388238430023193,2.227717876434326
1684594522666352000,2.62435205078125,-1.3663017749786377,-5.5621161460876465,1.8029918670654297
1684594522683224800,2.641224853515625,1.353141188621521,-3.305086374282837,0.046061836183071136
1684594522700097300,2.65809716796875,-0.2727817893028259,-2.3120648860931396,0.7878368496894836
1684594522716977000,2.674976806640625,-3.3092737197875977,-2.919841766357422,1.0827522277832031
1684594522733831700,2.691831787109375,-2.486740827560425,-3.352344512939453,1.0061819553375244
1684594522750715400,2.70871533203125,-0.30568310618400574,-3.600599765777588,-0.0029910283628851175
1684594522767587800,2.725587890625,1.9040886163711548,-5.038087844848633,0.46061834692955017
1684594522784460800,2.742460693359375,0.9798609018325806,-9.873982429504395,-0.7806583642959595
1684594522801333000,2.7593330078125,3.817150354385376,-14.975480079650879,-5.4897332191467285
1684594522818203000,2.776202880859375,7.266404151916504,-26.647668838500977,-4.377070903778076
1684594522835080700,2.793080810546875,10.534401893615723,-30.518657684326172,-1.3932210206985474
1684594522851951000,2.809951171875,9.357132911682129,-22.954946517944336,1.2185449600219727
1684594522868823000,2.826822998046875,3.538984775543213,-14.024333953857422,2.2265214920043945
1684594522885696300,2.8436962890625,2.606980323791504,-10.307682037353516,4.034897327423096
1684594522902569000,2.86056884765625,-0.7561319470405579,-9.308079719543457,6.116054534912109
1684594522919441700,2.877441650390625,-4.385445594787598,-8.304888725280762,6.876374244689941
1684594522936313600,2.894313720703125,-5.481956481933594,-7.334001541137695,6.197410583496094
1684594522953186300,2.911186279296875,-2.6321048736572266,-7.833503246307373,5.653043270111084
1684594522970059300,2.928059326171875,0.6370890140533447,-9.290732383728027,4.920241355895996
1684594522986931700,2.944931640625,2.310270309448242,-10.183255195617676,4.326821327209473
1684594523003795700,2.961795654296875,3.830310821533203,-10.75992488861084,3.6329028606414795
1684594523020680000,2.978679931640625,5.4041900634765625,-10.65224838256836,2.633301258087158
1684594523037547000,2.995547119140625,5.73260498046875,-10.472786903381348,1.3800604343414307
1684594523054424800,3.0124248046875,4.5098724365234375,-9.853045463562012,-0.1704886108636856
1684594523071284000,3.029283935546875,3.8673996925354004,-8.967700958251953,-1.6630117893218994
1684594523088162600,3.04616259765625,3.5916268825531006,-8.052446365356445,-2.059622049331665
1684594523105040400,3.063040283203125,2.7188446521759033,-8.054241180419922,-2.313859462738037
1684594523121913000,3.0799130859375,1.8460626602172852,-8.026124954223633,-2.826521635055542
1684594523138785300,3.096785400390625,0.5300102233886719,-8.049455642700195,-3.3583266735076904
1684594523155655200,3.1136552734375,-0.15493527054786682,-8.58604621887207,-3.713660717010498
1684594523172536000,3.1305361328125,-0.737587571144104,-9.528818130493164,-2.633301258087158
1684594523189400300,3.147400390625,-0.30927231907844543,-9.46181869506836,-1.3645070791244507
1684594523206275300,3.164275390625,0.7543373107910156,-9.530014038085938,-0.3397808074951172
1684594523223148000,3.18114794921875,1.561316728591919,-9.836894035339355,0.6939185857772827
1684594523240021200,3.198021240234375,1.810170292854309,-10.01156997680664,1.4644074440002441
1684594523256894000,3.21489404296875,1.4506487846374512,-9.7005033493042,1.795215129852295
1684594523273766000,3.231765869140625,1.1042876243591309,-8.986844062805176,1.6857435703277588
1684594523290638600,3.248638671875,1.022931694984436,-8.909076690673828,1.3316057920455933
1684594523307511300,3.26551123046875,0.7334001660346985,-9.242277145385742,1.043868899345398
1684594523324384500,3.282384521484375,0.02392822690308094,-9.449256896972656,0.6556333899497986
1684594523341256700,3.299256591796875,-0.37148571014404297,-9.561718940734863,0.27696922421455383
1684594523358116600,3.31611669921875,0.06699903309345245,-9.42891788482666,0.038285162299871445
1684594523374994700,3.33299462890625,0.8392825126647949,-9.34457015991211,-0.2153540402650833
1684594523391874800,3.349874755859375,1.5415760278701782,-9.494122505187988,-0.5593222975730896
1684594523408746800,3.366746826171875,1.8855443000793457,-9.671191215515137,-0.8805587291717529
1684594523425619500,3.383619384765625,1.7958134412765503,-9.870991706848145,-1.1102696657180786
1684594523442485200,3.4004853515625,1.2484551668167114,-10.185050010681152,-0.9337990283966064
1684594523459365400,3.417365478515625,1.225723385810852,-10.50209903717041,-0.2350948303937912
1684594523476237300,3.4342373046875,1.1527422666549683,-10.15035343170166,0.5545366406440735
1684594523493110300,3.4511103515625,1.2406785488128662,-9.640682220458984,1.100698471069336
1684594523509983000,3.46798291015625,1.4189438819885254,-8.953344345092773,1.2263215780258179
1684594523526852900,3.484852783203125,1.5553346872329712,-8.365307807922363,0.9349954724311829
1684594523543730200,3.501730224609375,1.76051926612854,-8.311469078063965,0.2602194547653198
1684594523560600300,3.518600341796875,2.286342144012451,-8.598608016967773,-0.251844584941864
1684594523577470200,3.53547021484375,2.7840490341186523,-8.895318031311035,-0.5581258535385132
1684594523594349000,3.55234912109375,3.3236305713653564,-9.078369140625,-0.7734799385070801
1684594523611218400,3.569218505859375,3.7818562984466553,-9.18425178527832,-0.9649057388305664
1684594523628091100,3.586091064453125,4.086941242218018,-9.013164520263672,-0.9834501147270203
1684594523644963600,3.602963623046875,4.3896331787109375,-8.450851440429688,-0.7100701332092285
1684594523661825800,3.61982568359375,4.503292083740234,-8.284550666809082,-0.39840495586395264
1684594523678709000,3.636708984375,4.479363918304443,-8.289934158325195,-0.19262222945690155
1684594523695581400,3.65358154296875,4.003790378570557,-7.514659404754639,-0.03409772366285324
1684594523712454000,3.670453857421875,3.7944185733795166,-6.467201232910156,-0.018544375896453857
1684594523729316400,3.68731640625,3.6340994834899902,-5.711069583892822,-0.0849452018737793
1684594523746199300,3.70419921875,3.7567315101623535,-5.367101192474365,-0.18005990982055664
1684594523763071700,3.72107177734375,4.481756687164307,-5.435894966125488,-0.29012975096702576
1684594523779938600,3.7379384765625,5.456831932067871,-5.830710411071777,-0.45284169912338257
1684594523796806700,3.754806640625,6.270989894866943,-6.592824459075928,-0.7070791125297546
1684594523813689600,3.771689697265625,7.101299285888672,-7.8179497718811035,-1.0289137363433838
1684594523830562600,3.7885625,8.477770805358887,-9.585647583007812,-1.293320655822754
1684594523847435300,3.805435302734375,9.707083702087402,-11.60100269317627,-1.5487544536590576
1684594523864308000,3.822307861328125,10.195219039916992,-13.031311988830566,-1.6600207090377808
1684594523881180000,3.839179931640625,8.983254432678223,-11.891132354736328,-1.2335001230239868
1684594523898052900,3.856052978515625,7.463213920593262,-8.943174362182617,-0.6658028960227966
1684594523914925300,3.87292529296875,6.85244607925415,-6.5042901039123535,-0.34277185797691345
1684594523931798300,3.88979833984375,6.076572895050049,-4.738387107849121,-0.26440688967704773
1684594523948670700,3.906670654296875,5.410770416259766,-3.9326040744781494,-0.48873403668403625
1684594523965543400,3.92354345703125,5.749952793121338,-4.080958843231201,-0.890728235244751
1684594523982405400,3.9404052734375,7.274778842926025,-4.820939540863037,-1.3028919696807861
1684594523999288800,3.957288818359375,8.93420124053955,-5.795416355133057,-1.7623138427734375
1684594524016163300,3.974163330078125,9.495318412780762,-6.507879257202148,-2.2606191635131836
1684594524033034000,3.991033935546875,9.440881729125977,-7.0462646484375,-2.878565549850464
1684594524049906700,4.00790673828125,8.35872745513916,-7.193423271179199,-3.6885361671447754
1684594524066779600,4.024779541015625,6.066403388977051,-6.482754707336426,-3.946960926055908
1684594524083651600,4.041651611328125,5.20379114151001,-6.676573276519775,-3.8662030696868896
1684594524100524300,4.058524169921875,5.5830535888671875,-7.289135932922363,-3.9529430866241455
1684594524117386000,4.075385986328125,6.858428001403809,-7.626523971557617,-4.40757942199707
1684594524134269400,4.09226953125,7.646264553070068,-6.692126750946045,-4.377668857574463
1684594524151131400,4.10913134765625,7.7353973388671875,-5.2737812995910645,-4.026522159576416
1684594524168014800,4.126014892578125,7.464410305023193,-4.226323127746582,-3.96789813041687
1684594524184887600,4.142887451171875,8.192426681518555,-3.879363775253296,-4.101297855377197
1684594524201750000,4.15975,9.69631576538086,-4.208974838256836,-4.086342811584473
1684594524218632200,4.176632080078125,10.466206550598145,-4.734199523925781,-3.555136203765869
1684594524235505200,4.193505126953125,9.641280174255371,-4.77667236328125,-2.737389087677002
1684594524252377900,4.2103779296875,8.836095809936523,-5.062614440917969,-2.0440688133239746
1684594524269250800,4.227250732421875,8.638090133666992,-5.742176055908203,-1.6378871202468872
1684594524286122800,4.244122802734375,8.816953659057617,-6.2877397537231445,-1.4757733345031738
1684594524302996000,4.260995849609375,8.440681457519531,-6.3529438972473145,-1.6917256116867065
1684594524319869000,4.277868896484375,7.926823139190674,-5.580660820007324,-2.0931215286254883
1684594524336741000,4.2947412109375,7.165307521820068,-4.803591251373291,-2.2408783435821533
1684594524353602800,4.311602783203125,6.6215386390686035,-4.826323509216309,-2.0446670055389404
1684594524370494700,4.32849462890625,7.025925636291504,-5.774479389190674,-1.7826528549194336
1684594524387359200,4.345359130859375,8.089534759521484,-6.900900363922119,-1.8454644680023193
1684594524404232000,4.36223193359375,9.052047729492188,-7.643871784210205,-2.228914260864258
1684594524421104000,4.379104248046875,8.71047306060791,-8.181658744812012,-2.703291416168213
1684594524437974300,4.395974365234375,7.664210796356201,-8.779864311218262,-3.0681967735290527
1684594524454848500,4.4128486328125,7.219145774841309,-9.710672378540039,-3.1316065788269043
1684594524471725600,4.4297255859375,7.534998416900635,-11.012368202209473,-2.8175487518310547
1684594524488589300,4.44658935546875,7.635497093200684,-11.239686012268066,-2.0470597743988037
1684594524505467100,4.463467041015625,6.069394588470459,-9.745368003845215,-1.1461620330810547
1684594524522340000,4.480340087890625,4.262813568115234,-7.882555961608887,-0.4223332107067108
1684594524539213000,4.497213134765625,3.8626139163970947,-6.821339130401611,0.15314064919948578
1684594524556085000,4.5140849609375,4.978267669677734,-6.730412006378174,0.48873403668403625
1684594524572958000,4.5309580078125,7.063612461090088,-6.946962356567383,0.5180460810661316
1684594524589830400,4.547830322265625,7.875377655029297,-7.202396392822266,0.21714866161346436
1684594524606703600,4.56470361328125,8.35872745513916,-7.460821151733398,-0.25244277715682983
1684594524623575600,4.581575439453125,7.317849636077881,-8.311469078063965,-0.8709874153137207
1684594524640448300,4.5984482421875,6.655037879943848,-9.531808853149414,-1.4327025413513184
1684594524657318700,4.615318603515625,5.953342914581299,-10.40339469909668,-1.7982062101364136
1684594524674196700,4.63219677734375,4.759324073791504,-10.131211280822754,-1.908276081085205
1684594524691065900,4.64906591796875,3.1686954498291016,-8.38265609741211,-1.5481562614440918
1684594524707927000,4.665927001953125,1.9112670421600342,-6.6454668045043945,-0.900897741317749
1684594524724799000,4.682799072265625,1.5619150400161743,-5.278566837310791,-0.28175488114356995
1684594524741679000,4.69967919921875,1.939382791519165,-4.315455436706543,0.04007977992296219
1684594524758556700,4.716556640625,2.4095723628997803,-3.7908291816711426,0.10827522724866867
1684594524775427300,4.73342724609375,2.475973129272461,-3.7429728507995605,-0.1453639715909958
1684594524792304600,4.7503046875,2.5525436401367188,-4.883750915527344,-0.7980063557624817
1684594524809170400,4.76717041015625,3.060420274734497,-6.39302396774292,-1.8376877307891846
1684594524826051300,4.78405126953125,3.696911096572876,-7.960322856903076,-2.8875386714935303
1684594524842920000,4.800919921875,3.892524242401123,-9.111868858337402,-3.2380871772766113
1684594524859792400,4.81779248046875,3.4612178802490234,-9.795019149780273,-2.8085756301879883
1684594524876665600,4.83466552734375,2.2205393314361572,-9.79262638092041,-2.2157537937164307
1684594524893537800,4.851537841796875,1.2789636850357056,-9.437891006469727,-1.6366907358169556
1684594524910410500,4.868410400390625,1.0636097192764282,-9.33320426940918,-1.0863415002822876
1684594524927281200,4.88528125,1.4075778722763062,-9.498908042907715,-0.36311084032058716
1684594524944157700,4.90215771484375,2.5776681900024414,-9.872786521911621,0.46480581164360046
1684594524961028400,4.9190283203125,4.752744197845459,-9.93380355834961,1.1599208116531372
1684594524977898800,4.935898681640625,6.716054916381836,-9.439684867858887,1.7018951177597046
1684594524994776000,4.952776123046875,5.704489231109619,-8.34736156463623,2.028515338897705
1684594525011644200,4.96964404296875,4.9399824142456055,-6.86261510848999,1.8095721006393433
1684594525028521500,4.986521484375,4.419543266296387,-5.521438121795654,1.2604193687438965
1684594525045391400,5.003391357421875,3.881756544113159,-4.643272399902344,0.7250252366065979
1684594525062265000,5.02026513671875,3.7908291816711426,-4.445864677429199,0.23210379481315613
1684594525079137000,5.037136962890625,3.91705060005188,-4.90408992767334,-0.20338992774486542
1684594525096009500,5.054009521484375,4.3172502517700195,-5.907878875732422,-0.7549355626106262
1684594525112882200,5.070882080078125,4.991427898406982,-7.48056173324585,-1.4315061569213867
1684594525129755000,5.0877548828125,6.201598167419434,-9.375677108764648,-2.060220241546631
1684594525146625000,5.104625,6.795018196105957,-10.871789932250977,-2.6500511169433594
1684594525163502300,5.12150244140625,6.1226348876953125,-10.86879825592041,-3.1339993476867676
1684594525180372500,5.13837255859375,5.932405471801758,-9.835697174072266,-3.156731367111206
1684594525197242400,5.155242431640625,6.147759437561035,-8.986245155334473,-2.806182861328125
1684594525214120700,5.17212060546875,6.747161865234375,-8.568697929382324,-2.4131617546081543
1684594525230990300,5.188990234375,7.4847493171691895,-8.13260555267334,-1.9334007501602173
1684594525247863000,5.205863037109375,7.767102241516113,-7.345965385437012,-1.3483555316925049
1684594525264735700,5.22273583984375,7.509873867034912,-6.290132522583008,-0.9355936646461487
1684594525281613800,5.23961376953125,6.915257453918457,-5.547759532928467,-0.8057830333709717
1684594525298480600,5.256480712890625,6.952346324920654,-5.2941203117370605,-0.8727820515632629
1684594525315353900,5.273353759765625,7.51585578918457,-5.391029357910156,-1.0259226560592651
1684594525332226600,5.2902265625,7.300501823425293,-5.213362216949463,-1.144965648651123
1684594525349099500,5.307099609375,6.692724704742432,-4.833501815795898,-1.3316057920455933
1684594525365971500,5.323971435546875,6.449853420257568,-4.883750915527344,-1.7910277843475342
1684594525382844200,5.34084423828125,5.989833354949951,-5.406582832336426,-2.4765713214874268
1684594525399717000,5.357717041015625,5.38624382019043,-5.91924524307251,-3.0903303623199463
1684594525416589600,5.374589599609375,4.649254322052002,-6.398407936096191,-3.617349624633789
1684594525433461800,5.391461669921875,4.559523582458496,-6.655636310577393,-3.8572301864624023
1684594525450335000,5.4083349609375,5.260022163391113,-6.404987812042236,-3.6364922523498535
1684594525467207400,5.42520751953125,5.752943992614746,-5.714060306549072,-3.252444267272949
1684594525484080600,5.44208056640625,6.013163089752197,-5.237888813018799,-2.878565549850464
1684594525500952600,5.45895263671875,7.063612461090088,-5.490331649780273,-2.6769702434539795
1684594525517823200,5.4758232421875,8.047062873840332,-5.709274768829346,-2.499901533126831
1684594525534707000,5.49270703125,7.896913051605225,-5.265406131744385,-2.097309112548828
1684594525551570700,5.50957080078125,6.973881721496582,-4.656432628631592,-1.5948163270950317
1684594525568443000,5.52644287109375,6.200401782989502,-4.5308098793029785,-1.1880364418029785
1684594525585316000,5.543316162109375,6.236293792724609,-5.14875602722168,-0.8536394834518433
1684594525602188800,5.560188720703125,6.850052833557129,-5.940182209014893,-0.5048855543136597
1684594525619061500,5.5770615234375,7.731808185577393,-5.881557941436768,-0.1740778535604477
1684594525635933400,5.593933349609375,7.944769382476807,-5.5005011558532715,0.137587308883667
1684594525652788200,5.610788330078125,7.850253105163574,-5.726024627685547,0.3858426511287689
1684594525669679400,5.627679443359375,7.6253275871276855,-6.628716945648193,0.5958128571510315
1684594525686552300,5.64455224609375,8.14815902709961,-7.338188648223877,0.6999006271362305
1684594525703424300,5.66142431640625,8.407182693481445,-7.683353424072266,0.7381857633590698
1684594525720297500,5.67829736328125,8.154739379882812,-7.826324462890625,0.9152546525001526
1684594525737169200,5.695169189453125,7.850253105163574,-8.056035995483398,1.2544373273849487
1684594525754043100,5.712043212890625,7.741977691650391,-8.395816802978516,1.6175481081008911
1684594525770914600,5.72891455078125,7.671389579772949,-8.745168685913086,1.9046868085861206
1684594525787775500,5.745775390625,7.685746192932129,-8.665008544921875,2.196611166000366
1684594525804663000,5.7626630859375,7.469794273376465,-8.421539306640625,2.5459632873535156
1684594525821533200,5.779533203125,7.393223762512207,-8.379066467285156,2.9001009464263916
1684594525838405600,5.796405517578125,7.621738433837891,-8.24686336517334,3.197409152984619
1684594525855278000,5.813278076171875,8.12961483001709,-7.727620601654053,3.346362352371216
1684594525872148700,5.830148681640625,7.7593255043029785,-7.028318405151367,3.2895328998565674
1684594525889026600,5.847026611328125,7.019345283508301,-6.9068827629089355,3.366103172302246
1684594525905896200,5.863896240234375,7.602595806121826,-7.214958667755127,3.356531858444214
1684594525922769000,5.880768798828125,8.186444282531738,-7.5942206382751465,3.2793633937835693
1684594525939641600,5.8976416015625,8.022536277770996,-7.22452974319458,3.01196551322937
1684594525956514600,5.9145146484375,7.658228874206543,-6.6969122886657715,2.6632115840911865
1684594525973386800,5.93138671875,7.6911301612854,-6.605386734008789,2.4047868251800537
1684594525990259700,5.948259765625,8.159524917602539,-6.792625427246094,2.2707886695861816
1684594526007121700,5.96512158203125,8.560921669006348,-6.908677101135254,2.1750757694244385
1684594526024005000,5.982005126953125,8.508278846740723,-6.955935478210449,2.0793628692626953
1684594526040877600,5.998877685546875,8.288139343261719,-6.725626468658447,2.007578134536743
1684594526057750300,6.015750244140625,8.110472679138184,-6.438487529754639,2.0506489276885986
1684594526074622700,6.032622802734375,8.379066467285156,-6.783652305603027,2.155933141708374
1684594526091496000,6.049495849609375,9.803394317626953,-7.539186000823975,2.342573404312134
1684594526108367600,6.06636767578125,8.944969177246094,-7.549953460693359,2.0452651977539062
1684594526125240800,6.08324072265625,8.940781593322754,-7.716853141784668,1.9399809837341309
1684594526142113500,6.100113525390625,8.237890243530273,-7.29392147064209,1.8681962490081787
1684594526158986500,6.116986572265625,7.773682594299316,-6.905686378479004,1.9639091491699219
1684594526175858400,6.1338583984375,8.080561637878418,-7.265805721282959,2.207977056503296
1684594526192731600,6.150731689453125,8.812766075134277,-7.846663475036621,2.403590440750122
1684594526209604400,6.167604248046875,8.827720642089844,-8.028517723083496,2.4227328300476074
1684594526226477000,6.18447705078125,8.191229820251465,-7.5673017501831055,2.341377019882202
1684594526243349000,6.201348876953125,7.645068168640137,-6.949355125427246,2.3994028568267822
1684594526260222200,6.21822216796875,7.6869425773620605,-6.787241458892822,2.5573291778564453
1684594526277094700,6.2350947265625,8.384450912475586,-7.019345283508301,2.65842604637146
1684594526293967600,6.251967529296875,8.790632247924805,-7.207181930541992,2.6392834186553955
1684594526310839800,6.26883984375,8.284550666809082,-7.027719974517822,2.447857618331909
1684594526327712800,6.285712646484375,7.53559684753418,-6.9583282470703125,2.2510478496551514
1684594526344585200,6.302585205078125,7.345367431640625,-7.205387115478516,2.0685951709747314
1684594526361449700,6.31944970703125,7.527820110321045,-7.435098171234131,1.872383713722229
1684594526378330400,6.336330322265625,7.523034572601318,-7.434499740600586,1.6139588356018066
1684594526395203300,6.353203369140625,7.083353042602539,-7.198208808898926,1.2837493419647217
1684594526412076000,6.370075927734375,6.553342819213867,-6.980462074279785,0.98703932762146
1684594526428949000,6.386948974609375,6.2189459800720215,-6.844669342041016,0.7525427341461182
1684594526445820700,6.403820556640625,5.907878875732422,-6.556334018707275,0.5467599630355835
1684594526462694000,6.42069384765625,5.4759745597839355,-5.8953166007995605,0.3846462368965149
1684594526479566800,6.43756689453125,5.004588603973389,-5.014159679412842,0.31345975399017334
1684594526496442000,6.454442138671875,4.4721856117248535,-4.2622151374816895,0.3523431420326233
1684594526513309000,6.471308837890625,3.9397823810577393,-3.6681971549987793,0.49651068449020386
1684594526530185000,6.48818505859375,3.652045488357544,-3.294916868209839,0.6981059908866882
1684594526547045000,6.505045166015625,3.5228331089019775,-3.1130621433258057,0.9038887619972229
1684594526563921700,6.521921630859375,3.579662561416626,-3.047259569168091,1.0761719942092896
1684594526580802300,6.53880224609375,4.0181474685668945,-3.053839921951294,1.2245270013809204
1684594526597677600,6.555677490234375,4.409972190856934,-3.2177481651306152,1.3537393808364868
1684594526614546000,6.5725458984375,4.59721040725708,-3.4953157901763916,1.363310694694519
1684594526631421000,6.5894208984375,4.8089752197265625,-3.964308977127075,1.2287144660949707
1684594526648293000,6.606293212890625,5.069792747497559,-4.628915309906006,0.9936196208000183
1684594526665165800,6.623165771484375,5.42153787612915,-5.432305812835693,0.7154539823532104
1684594526682038500,6.64003857421875,5.849255084991455,-6.20219612121582,0.4181457459926605
1684594526698908400,6.656908447265625,6.25723123550415,-6.86261510848999,0.10648060590028763
1684594526715783700,6.67378369140625,6.550950050354004,-7.4123663902282715,-0.20518454909324646
1684594526732656600,6.69065673828125,7.067800045013428,-7.795815944671631,-0.40677985548973083
1684594526749529300,6.707529296875,7.402196884155273,-7.9351983070373535,-0.397208571434021
1684594526766402000,6.724402099609375,7.229315280914307,-7.7353973388671875,0.005383851006627083
1684594526783274200,6.741274169921875,7.2867431640625,-7.785048484802246,0.7088736891746521
1684594526800147000,6.75814697265625,7.911868095397949,-7.9040913581848145,1.4745769500732422
1684594526817020000,6.77502001953125,8.435297966003418,-7.764111042022705,2.1643080711364746
1684594526833892900,6.791892822265625,8.8109712600708,-7.465606689453125,2.734398126602173
1684594526850765000,6.80876513671875,8.699705123901367,-7.165307521820068,3.2231321334838867
1684594526867638000,6.825637939453125,8.984451293945312,-6.7794647216796875,3.424727439880371
1684594526884510500,6.842510498046875,8.541180610656738,-6.898507595062256,3.6873397827148438
1684594526901383700,6.8593837890625,8.72901725769043,-7.291528701782227,3.902693748474121
1684594526918255900,6.876255859375,9.245866775512695,-7.709076404571533,4.012165546417236
1684594526935128300,6.89312841796875,9.118449211120605,-8.143373489379883,3.9349968433380127
1684594526952001300,6.910001220703125,8.680562019348145,-8.36590576171875,3.6807594299316406
1684594526968874200,6.926874267578125,7.304090976715088,-8.763712882995605,3.7322051525115967
1684594526985746400,6.943746337890625,8.158329010009766,-7.6737823486328125,2.8725836277008057
1684594527002619400,6.960619384765625,8.823533058166504,-8.159524917602539,3.1166515350341797
1684594527019492000,6.9774921875,9.143573760986328,-8.33300495147705,3.260220766067505
1684594527036364800,6.99436474609375,9.110074043273926,-8.24686336517334,3.174079179763794
1684594527053237200,7.0112373046875,8.845666885375977,-7.81974458694458,2.9252257347106934
1684594527070110200,7.028110107421875,8.284550666809082,-7.052844524383545,2.729612350463867
1684594527086982700,7.044982666015625,8.01057243347168,-6.593422889709473,2.8211379051208496
1684594527103855600,7.061855712890625,8.23968505859375,-6.608976364135742,3.160918712615967
1684594527120727800,7.078727783203125,8.631509780883789,-6.840481758117676,3.462414264678955
1684594527137587700,7.095587646484375,8.780462265014648,-7.061219692230225,3.524627685546875
1684594527154476000,7.11247607421875,8.651249885559082,-6.978667259216309,3.2614171504974365
1684594527171346400,7.129346435546875,8.073383331298828,-6.7417778968811035,2.8833513259887695
1684594527188218400,7.14621826171875,7.500302791595459,-6.6006011962890625,2.6488547325134277
1684594527205091300,7.16309130859375,7.1718878746032715,-6.704689025878906,2.6147570610046387
1684594527221964000,7.179964111328125,7.173084259033203,-6.977470874786377,2.648256540298462
1684594527238836700,7.196836669921875,7.254439830780029,-7.153941631317139,2.528017044067383
1684594527255709000,7.213708984375,7.164111137390137,-7.0959153175354,2.231307029724121
1684594527272582100,7.23058203125,6.867401123046875,-6.935596466064453,1.810170292854309
1684594527289454000,7.2474541015625,6.318248271942139,-6.669992923736572,1.3411771059036255
1684594527306328600,7.26432861328125,5.711069583892822,-6.318248271942139,0.8961120843887329
1684594527323199700,7.28119970703125,5.099104881286621,-5.922834396362305,0.5276173949241638
1684594527340073000,7.298072998046875,4.539782524108887,-5.5621161460876465,0.21714866161346436
1684594527356945400,7.3149453125,4.037290096282959,-5.206183910369873,0.006580262444913387
1684594527373818600,7.331818603515625,3.6777684688568115,-4.750949382781982,-0.05024927482008934
1684594527390690300,7.348690185546875,3.441477060317993,-4.210171222686768,0.04546362906694412
1684594527407563500,7.3655634765625,3.3343982696533203,-3.6508491039276123,0.20398813486099243
1684594527424436200,7.382436279296875,3.3278181552886963,-3.197409152984619,0.4055834412574768
1684594527441309200,7.39930908203125,3.6125640869140625,-2.9694929122924805,0.6119644045829773
1684594527458181400,7.416181396484375,4.028316974639893,-3.0478577613830566,0.7938188910484314
1684594527475054300,7.433054443359375,4.405784606933594,-3.331407308578491,0.9134600162506104
1684594527491926800,7.4499267578125,4.884349346160889,-3.7058839797973633,1.0139585733413696
1684594527508800000,7.466800048828125,5.320441246032715,-4.175475597381592,1.0325030088424683
1684594527525672200,7.483672119140625,5.599205017089844,-4.6540398597717285,0.9463613629341125
1684594527542545000,7.500544921875,5.777470111846924,-5.132604598999023,0.7543373107910156
1684594527559417900,7.51741796875,5.813961029052734,-5.720042705535889,0.5335994362831116
1684594527576290600,7.53429052734375,6.01675271987915,-6.38883638381958,0.3026920557022095
1684594527593162500,7.55116259765625,6.573083877563477,-7.059424877166748,0.1537388563156128
1684594527610036000,7.568035888671875,7.229315280914307,-7.764111042022705,0.08195417374372482
1684594527626905900,7.58490576171875,7.598408222198486,-8.100302696228027,0.19621145725250244
1684594527643784000,7.601783935546875,7.558328628540039,-7.790432453155518,0.6323033571243286
1684594527660653600,7.618653564453125,7.795815944671631,-7.625925540924072,1.322034478187561
1684594527677524000,7.63552392578125,8.307282447814941,-7.805985450744629,2.0446670055389404
1684594527694401800,7.65240185546875,8.80798053741455,-7.843074321746826,2.6572296619415283
1684594527711272200,7.669272216796875,9.101698875427246,-7.500900745391846,3.122035264968872
1684594527728144400,7.686144287109375,8.394021987915039,-7.097710132598877,3.3708889484405518
1684594527745017300,7.703017333984375,8.268997192382812,-6.849454879760742,3.6681971549987793
1684594527761890000,7.71989013671875,8.6033935546875,-6.918846607208252,4.01754903793335
1684594527778763000,7.736762939453125,8.986245155334473,-7.302894592285156,4.376472473144531
1684594527795635200,7.75363525390625,9.489336013793945,-7.859824180603027,4.600799560546875
1684594527812508200,7.770508056640625,1.7581263780593872,-6.828517436981201,3.315255880355835
1684594527829372400,7.787372314453125,6.470790863037109,-7.972286701202393,3.713660717010498
1684594527846253800,7.80425390625,8.414958953857422,-7.470392227172852,3.2751760482788086
1684594527863125800,7.821125732421875,8.39282512664795,-7.886145114898682,3.207578659057617
1684594527879999000,7.8379990234375,9.052047729492188,-8.151748657226562,3.4277184009552
1684594527896871400,7.854871337890625,9.760323524475098,-8.671588897705078,3.944568157196045
1684594527913744600,7.87174462890625,8.975478172302246,-8.100302696228027,3.930211305618286
1684594527930616300,7.8886162109375,8.746963500976562,-7.109076023101807,3.6634113788604736
1684594527947489500,7.905489501953125,9.069396018981934,-6.541378974914551,3.5682966709136963
1684594527964362200,7.9223623046875,8.995817184448242,-6.153741836547852,3.6023945808410645
1684594527981235200,7.939235107421875,8.671588897705078,-6.2051873207092285,3.6023945808410645
1684594527998107600,7.956107666015625,8.315656661987305,-6.534200668334961,3.5443685054779053
1684594528014980400,7.97298046875,7.772486209869385,-6.632306098937988,3.3475589752197266
1684594528031853300,7.989853271484375,7.4709906578063965,-6.50608491897583,3.060420274734497
1684594528048726000,8.00672607421875,7.399205684661865,-6.414559364318848,2.768495798110962
1684594528065598200,8.02359814453125,7.495516777038574,-6.509674072265625,2.524427890777588
1684594528082470000,8.040469970703125,7.429116249084473,-6.656832695007324,2.2893331050872803
1684594528099344000,8.05734375,7.124031066894531,-6.68853759765625,2.0213370323181152
1684594528116216800,8.074216796875,6.570691108703613,-6.547360897064209,1.705484390258789
1684594528133089000,8.091089111328126,5.9916276931762695,-6.176473617553711,1.3465609550476074
1684594528149962200,8.107962158203126,5.585446357727051,-5.8683977127075195,1.0163514614105225
1684594528166834700,8.124834716796874,5.227120876312256,-5.756533145904541,0.6957131624221802
1684594528183697000,8.14169677734375,5.0602216720581055,-5.755336761474609,0.3798605799674988
1684594528200579800,8.158579833984374,4.887938499450684,-5.5722856521606445,0.08793623000383377
1684594528217449200,8.17544921875,4.503890514373779,-5.044668197631836,-0.15553347766399384
1684594528234329000,8.1923291015625,4.296313285827637,-4.432105541229248,-0.24586252868175507
1684594528251198500,8.209198486328125,3.8464624881744385,-4.015156269073486,-0.1788634955883026
1684594528268071000,8.22607080078125,3.111267566680908,-3.912863254547119,-0.020937198773026466
1684594528284943400,8.242943359375,3.3780672550201416,-3.895515203475952,0.3475574851036072
1684594528301805600,8.2598056640625,4.122235298156738,-3.9224345684051514,0.7692924737930298
1684594528318689500,8.276689453125,4.584648132324219,-3.881756544113159,1.089930772781372
1684594528335561500,8.2935615234375,4.765904426574707,-3.906881093978882,1.2861422300338745
1684594528352434400,8.310434326171874,5.039284706115723,-4.252045631408691,1.4057832956314087
1684594528369307100,8.32730712890625,5.371288776397705,-4.893920421600342,1.4673985242843628
1684594528386180000,8.34418017578125,5.645864963531494,-5.597410202026367,1.3663017749786377
1684594528403052300,8.36105224609375,5.867799282073975,-6.209374904632568,1.1599208116531372
1684594528419925200,8.37792529296875,6.290132522583008,-6.745367050170898,0.8913264274597168
1684594528436798200,8.394798095703125,6.52044153213501,-7.0893354415893555,0.5988038778305054
1684594528453671200,8.411671142578125,6.654439926147461,-7.156334400177002,0.3978067636489868
1684594528470543400,8.42854345703125,6.748956203460693,-6.922435760498047,0.5276173949241638
1684594528487416300,8.445416259765626,6.847062110900879,-6.5419769287109375,0.9684949517250061
1684594528504288800,8.462288818359376,7.299903869628906,-6.425326824188232,1.5379867553710938
1684594528521151200,8.479151123046876,7.929814338684082,-6.547959327697754,2.117648124694824
1684594528538034000,8.496033935546874,9.003593444824219,-6.696314334869385,2.5674986839294434
1684594528554907000,8.512906982421875,9.409774780273438,-6.894320011138916,2.9790642261505127
1684594528571779800,8.52977978515625,9.644869804382324,-7.240681171417236,3.376272678375244
1684594528588652800,8.54665283203125,9.492925643920898,-7.4464640617370605,3.649054527282715
1684594528605524700,8.563524658203125,8.93958568572998,-7.569096088409424,3.844667673110962
1684594528622397700,8.580397705078125,8.726025581359863,-7.740781307220459,3.906881093978882
1684594528639270700,8.597270751953126,22.671995162963867,-13.454243659973145,7.740781307220459
1684594528656143400,8.614143310546876,4.868795871734619,-7.000801086425781,3.441477060317993
1684594528673015800,8.631015869140626,8.35274600982666,-7.438687324523926,3.8973097801208496
1684594528689888800,8.647888671875,8.268997192382812,-6.883552551269531,3.720839262008667
1684594528706761500,8.664761474609374,8.962915420532227,-7.406384468078613,3.7154552936553955
1684594528723634200,8.68163427734375,8.678768157958984,-7.777870178222656,3.5712878704071045
1684594528740506600,8.698506591796875,9.262018203735352,-8.129016876220703,3.662214994430542
1684594528757377000,8.715376953125,10.790433883666992,-8.723034858703613,4.198207378387451
1684594528774254800,8.7322548828125,9.455238342285156,-8.809774398803711,4.19282341003418
1684594528791125200,8.749125244140625,8.224729537963867,-7.642675399780273,3.5952160358428955
1684594528807997700,8.765997802734375,8.093124389648438,-6.92482852935791,3.3852458000183105
1684594528824870400,8.782870361328126,8.124231338500977,-6.375676155090332,3.510869026184082
1684594528841732600,8.799732666015625,7.94716215133667,-6.270391941070557,3.754936933517456
1684594528858616000,8.816615966796874,7.858029365539551,-6.595815658569336,3.869194269180298
1684594528875477500,8.8334775390625,7.519444942474365,-6.708876609802246,3.7872400283813477
1684594528892361500,8.850361572265625,7.118049144744873,-6.516254425048828,3.5671002864837646
1684594528909234200,8.867234130859375,6.903293132781982,-6.366703033447266,3.2895328998565674
1684594528926107100,8.884107177734375,6.879963397979736,-6.451648235321045,3.0071799755096436
1684594528942979000,8.90097900390625,6.961319446563721,-6.551548480987549,2.7152554988861084
1684594528959852300,8.917852294921875,6.775277137756348,-6.507281303405762,2.404188632965088
1684594528976724700,8.934724853515625,6.508477687835693,-6.5150580406188965,2.0644078254699707
1684594528993598000,8.951597900390626,6.265605926513672,-6.589833736419678,1.7240287065505981
1684594529010470100,8.96847021484375,5.92223596572876,-6.597012042999268,1.3507484197616577
1684594529027343000,8.985343017578124,5.453841209411621,-6.375077724456787,0.9822536706924438
1684594529044216000,9.002216064453124,4.941776752471924,-5.994618892669678,0.6376872062683105
1684594529061089000,9.019089111328125,4.449453830718994,-5.600401401519775,0.3361915946006775
1684594529077958700,9.035958740234374,4.109074592590332,-5.249852657318115,0.0687936544418335
1684594529094836500,9.05283642578125,3.9074792861938477,-4.966901779174805,-0.10827522724866867
1684594529111707000,9.069706787109375,3.8536407947540283,-4.617549419403076,-0.1746760457754135
1684594529128579600,9.08657958984375,3.751945972442627,-4.182055950164795,-0.08374879509210587
1684594529145451800,9.10345166015625,3.5162527561187744,-3.838087558746338,0.1657029688358307
1684594529162325000,9.120324951171876,3.7543387413024902,-3.7154552936553955,0.4815555512905121
1684594529179197700,9.13719775390625,4.18863582611084,-3.765106439590454,0.7501499056816101
1684594529196070700,9.154070556640624,4.537389755249023,-3.8530426025390625,0.9128618240356445
1684594529212942600,9.170942626953124,4.9190449714660645,-3.9260237216949463,0.9990034699440002
1684594529229815800,9.18781591796875,5.067399978637695,-4.088735580444336,1.0325030088424683
1684594529246688800,9.204688720703125,4.968696117401123,-4.427918434143066,0.9744769930839539
1684594529263561500,9.2215615234375,5.066802024841309,-5.044668197631836,0.8685946464538574
1684594529280433700,9.23843359375,5.523232936859131,-5.815157413482666,0.7722834944725037
1684594529297306600,9.255306640625,6.126822471618652,-6.481558322906494,0.6616154313087463
1684594529314179300,9.272179443359375,6.544369697570801,-7.007979393005371,0.5748756527900696
1684594529331052500,9.289052490234376,7.094718933105469,-7.420741081237793,0.5700899958610535
1684594529347924700,9.3059248046875,7.437490940093994,-7.408178806304932,0.7998009920120239
1684594529364795100,9.322795166015625,6.986443996429443,-6.796214580535889,1.29810631275177
1684594529381660400,9.339660400390626,6.928418159484863,-6.5491557121276855,1.8442680835723877
1684594529398543400,9.35654345703125,7.807182312011719,-6.921239376068115,2.428116798400879
1684594529415415600,9.37341552734375,8.715258598327637,-7.332206726074219,2.954537868499756
1684594529432288800,9.390288818359375,9.129815101623535,-7.35314416885376,3.246462106704712
1684594529449161500,9.407161376953125,8.924630165100098,-7.344171047210693,3.5910286903381348
1684594529466034400,9.424034423828125,9.172286987304688,-7.264011383056641,3.869194269180298
1684594529482906600,9.44090673828125,9.167501449584961,-7.322037220001221,4.0797624588012695
1684594529499779800,9.45777978515625,0.8350951075553894,-6.169893264770508,3.1339993476867676
1684594529516652300,9.47465234375,15.699309349060059,-9.997811317443848,4.965106964111328
1684594529533525500,9.491525390625,10.101301193237305,-8.065607070922852,3.854238986968994
1684594529550397700,9.508397705078124,8.846264839172363,-6.784250259399414,3.601198196411133
1684594529567259600,9.525259765625,9.861420631408691,-5.419145107269287,3.0340991020202637
1684594529584143000,9.54214306640625,10.158130645751953,-5.712265968322754,3.2679975032806396
1684594529601016300,9.559016357421875,10.594820022583008,-6.39302396774292,3.4546377658843994
1684594529617888500,9.575888427734375,9.684351921081543,-6.393621921539307,3.0759735107421875
1684594529634761500,9.592761474609375,8.39282512664795,-6.661618232727051,2.878565549850464
1684594529651634400,9.609634521484375,8.069794654846191,-7.086344242095947,2.940180778503418
1684594529668507000,9.6265068359375,11.140982627868652,-8.015357971191406,3.586841106414795
1684594529685379300,9.64337939453125,12.069995880126953,-8.913862228393555,4.246662139892578
1684594529702252300,9.660252197265624,9.260223388671875,-7.670791149139404,3.8398821353912354
1684594529719125200,9.677125244140624,7.875377655029297,-6.187839508056641,3.242872953414917
1684594529735988000,9.693988037109374,7.949554920196533,-5.648257732391357,3.276970624923706
1684594529752864500,9.710864501953125,8.578866958618164,-5.583651542663574,3.5497524738311768
1684594529769746200,9.72774609375,8.85643482208252,-5.8235321044921875,3.597608804702759
1684594529786616300,9.7446162109375,8.318648338317871,-6.084349632263184,3.3003005981445312
1684594529803489000,9.761489013671875,7.63729190826416,-6.272186279296875,2.9599215984344482
1684594529820361500,9.778361572265625,7.103094100952148,-6.260222434997559,2.6249263286590576
1684594529837231900,9.79523193359375,6.778866767883301,-6.1914286613464355,2.279761791229248
1684594529854109700,9.812109619140625,6.836294174194336,-6.257829189300537,1.9591234922409058
1684594529870980000,9.82897998046875,7.052246570587158,-6.467799663543701,1.6432709693908691
1684594529887852500,9.8458525390625,6.894918441772461,-6.55693244934082,1.308275818824768
1684594529904714800,9.86271484375,6.327221393585205,-6.449255466461182,0.9726824164390564
1684594529921587200,9.879587158203124,5.629713535308838,-6.241079807281494,0.6711867451667786
1684594529938471200,9.89647119140625,5.023731231689453,-6.142973899841309,0.4414757788181305
1684594529955343400,9.91334326171875,4.8089752197265625,-6.1465630531311035,0.27337998151779175
1684594529972216600,9.930216552734375,4.804189682006836,-6.0023956298828125,0.13998012244701385
1684594529989089300,9.94708935546875,4.849653244018555,-5.514857769012451,0.07357929646968842
1684594530005961700,9.963961669921876,4.683950424194336,-4.744967460632324,0.14117653667926788
1684594530022834200,9.980834228515626,4.3998026847839355,-4.113860130310059,0.2997010350227356
1684594530039707400,9.997707275390624,4.23230504989624,-3.8602211475372314,0.49651068449020386
1684594530056582400,10.01458251953125,4.289134502410889,-3.803391695022583,0.7022934556007385
1684594530073450800,10.03145068359375,4.356133460998535,-3.8428730964660645,0.9367900490760803
1684594530090325500,10.048325439453125,4.418346881866455,-3.9248273372650146,1.1856436729431152
1684594530107198200,10.0651982421875,4.7336015701293945,-4.122235298156738,1.4009976387023926
1684594530124071000,10.08207080078125,5.288137912750244,-4.444668292999268,1.5966109037399292
1684594530140944100,10.098944091796875,5.795416355133057,-4.862813949584961,1.7018951177597046
1684594530157816300,10.11581640625,6.121438503265381,-5.203192710876465,1.6396816968917847
1684594530174689300,10.132689208984376,6.212964057922363,-5.456233978271484,1.4476577043533325
1684594530191562200,10.149562255859376,5.951548099517822,-5.684150218963623,1.2987045049667358
1684594530208435200,10.166435302734374,5.791827201843262,-6.190232276916504,1.2454642057418823
1684594530225307400,10.183307373046874,6.324828624725342,-7.057032108306885,1.2975081205368042
1684594530242180400,10.200180419921875,7.110870838165283,-7.963313579559326,1.4452649354934692
1684594530259042600,10.21704248046875,7.523034572601318,-8.514859199523926,1.6360924243927002
1684594530275926000,10.233926025390625,6.857829570770264,-8.040482521057129,1.9669002294540405
1684594530292798500,10.250798583984375,6.483951091766357,-7.576872825622559,2.4119651317596436
1684594530309671400,10.26767138671875,6.946363925933838,-7.545766353607178,2.771486759185791
1684594530326544100,10.284544189453126,7.743174076080322,-7.620542049407959,2.9826533794403076
1684594530343417000,10.3014169921875,8.406583786010742,-7.666005611419678,2.9730820655822754
1684594530360289000,10.3182890625,7.822137355804443,-7.061219692230225,2.7631118297576904
1684594530377162200,10.335162353515624,6.611967086791992,-6.259026050567627,2.657827854156494
1684594530394035200,10.35203515625,6.038288116455078,-5.961119174957275,2.8492536544799805
1684594530410908200,10.368908203125,6.369095802307129,-6.417550563812256,3.308675527572632
1684594530427780600,10.385780517578125,7.3639116287231445,-7.143772125244141,3.867997884750366
1684594530444653600,10.402653564453125,7.9381890296936035,-7.629515171051025,4.2795634269714355
1684594530461526000,10.419526123046875,7.991429328918457,-7.749754428863525,4.403990268707275
1684594530478399200,10.436399169921875,7.653443336486816,-7.905886173248291,4.302893161773682
1684594530495271700,10.453271728515626,7.859824180603027,-8.24566650390625,4.207180500030518
1684594530512144600,10.47014453125,8.294719696044922,-8.438288688659668,4.183252334594727
1684594530529017300,10.487017333984374,8.189435958862305,-8.37547779083252,4.125824451446533
1684594530545890300,10.503890380859374,7.630711555480957,-8.201997756958008,4.11625337600708
1684594530562762500,10.520762451171874,7.658228874206543,-7.8628153800964355,4.183252334594727
1684594530579635500,10.537635498046875,8.028517723083496,-7.543971538543701,4.327419757843018
1684594530596508200,10.554508056640625,8.13260555267334,-7.348358154296875,4.457230567932129
1684594530613381400,10.57138134765625,8.060821533203125,-7.276573657989502,4.490729808807373
1684594530630253600,10.588253662109375,7.770691394805908,-7.41416072845459,4.451846599578857
1684594530647126500,10.60512646484375,7.814360618591309,-7.701299667358398,4.3657050132751465
1684594530663999200,10.621999267578126,7.906484127044678,-8.011768341064453,4.178466320037842
1684594530680872400,10.63887255859375,7.530212879180908,-8.028517723083496,3.7669010162353516
1684594530697744400,10.655744384765624,6.81296443939209,-7.657032489776611,3.2931220531463623
1684594530714617600,10.67261767578125,6.320042610168457,-7.219145774841309,2.967698335647583
1684594530731490600,10.689490478515625,6.371488571166992,-6.985247611999512,2.8630123138427734
1684594530748363500,10.706363525390625,6.867999076843262,-7.058228492736816,2.853440999984741
1684594530765235700,10.723235595703125,7.259225845336914,-7.0067830085754395,2.7625136375427246
1684594530782108700,10.740108642578125,7.106084823608398,-6.86680269241333,2.504088878631592
1684594530798981000,10.756981201171875,6.69990348815918,-6.726224422454834,2.1308085918426514
1684594530815854300,10.773854248046876,6.126822471618652,-6.483951091766357,1.695314884185791
1684594530832726800,10.790726806640626,5.9545392990112305,-6.37747049331665,1.29810631275177
1684594530849599700,10.807599853515624,6.193821430206299,-6.535397052764893,1.0205388069152832
1684594530866472700,10.82447265625,6.21356201171875,-6.6490559577941895,0.747757077217102
1684594530883345400,10.841345458984375,5.606383323669434,-6.340381622314453,0.47976094484329224
1684594530900217900,10.8582177734375,4.712066173553467,-5.6584272384643555,0.3026920557022095
1684594530917090800,10.8750908203125,4.084548473358154,-5.121238708496094,0.2841476798057556
1684594530933963800,10.8919638671875,3.954737663269043,-4.90109920501709,0.389431893825531
1684594530950828500,10.90882861328125,4.575077056884766,-4.8466620445251465,0.6340979933738708
1684594530967709000,10.925708984375,5.112864017486572,-4.600799560546875,1.017547845840454
1684594530984582000,10.942581787109376,4.724030017852783,-4.103092670440674,1.3674981594085693
1684594531001444000,10.959444091796875,4.244867324829102,-3.6532418727874756,1.592423439025879
1684594531018328000,10.976328125,4.205984115600586,-3.4959139823913574,1.8556339740753174
1684594531035200000,10.993199951171874,4.549952030181885,-3.569493293762207,2.152942180633545
1684594531052072700,11.01007275390625,4.90827751159668,-3.671786308288574,2.4017956256866455
1684594531068946000,11.02694580078125,5.127819061279297,-3.768097400665283,2.5405795574188232
1684594531085819000,11.04381884765625,5.338985443115234,-4.1419758796691895,2.5495524406433105
1684594531102691000,11.060691162109375,5.757729530334473,-4.926821708679199,2.4149563312530518
1684594531119564000,11.07756396484375,6.305087566375732,-5.793023586273193,2.1415762901306152
1684594531136436700,11.094436767578125,6.550950050354004,-6.390032768249512,1.7533408403396606
1684594531153310000,11.11131005859375,6.367300987243652,-6.909275531768799,1.287936806678772
1684594531170182100,11.12818212890625,6.719046115875244,-7.731808185577393,0.9427721500396729
1684594531187058000,11.145057861328125,7.371688365936279,-8.631509780883789,0.7411768436431885
1684594531203925000,11.161925048828126,7.409973621368408,-8.789435386657715,0.6544370055198669
1684594531220801000,11.178801025390625,6.519245147705078,-7.907680511474609,0.8512466549873352
1684594531237673200,11.195673095703125,6.665805816650391,-7.607979774475098,1.3495519161224365
1684594531254546200,11.212546142578125,7.964509963989258,-7.910073280334473,1.8335003852844238
1684594531271419000,11.2294189453125,8.827122688293457,-7.779664516448975,2.0446670055389404
1684594531288292000,11.2462919921875,8.61894702911377,-7.071389198303223,2.0787646770477295
1684594531305164300,11.263164306640626,7.8382887840271,-6.347560405731201,2.1607189178466797
1684594531322037200,11.280037353515626,7.657032489776611,-6.318846225738525,2.524427890777588
1684594531338910200,11.29691015625,8.173882484436035,-6.723831653594971,3.1034910678863525
1684594531355783200,11.313783203125,8.83370304107666,-7.16231632232666,3.686741590499878
1684594531372655600,11.330655517578125,8.709874153137207,-7.349554538726807,4.213162422180176
1684594531389528000,11.347528076171875,8.136195182800293,-6.966104984283447,4.414159774780273
1684594531406401500,11.364401611328125,7.351349353790283,-6.461219310760498,4.2281174659729
1684594531423274200,11.381274169921875,7.156334400177002,-6.5180487632751465,4.146163463592529
1684594531440146200,11.398146240234375,7.6630144119262695,-6.806384086608887,4.165306091308594
1684594531457020200,11.415020263671876,7.988438606262207,-7.084549427032471,4.141377925872803
1684594531473892400,11.431892333984376,8.019545555114746,-7.572087287902832,4.155136585235596
1684594531490765000,11.44876513671875,8.154739379882812,-8.026723861694336,4.235894203186035
1684594531507638000,11.465637939453124,8.10807991027832,-8.213363647460938,4.231108665466309
1684594531524510500,11.482510498046874,8.060222625732422,-8.179265975952148,4.168895244598389
1684594531541383400,11.499383544921875,8.134998321533203,-7.883154392242432,4.087539196014404
1684594531558256600,11.516256591796875,8.204988479614258,-7.428517818450928,3.944568157196045
1684594531575128800,11.53312890625,8.231907844543457,-7.117451190948486,3.792025566101074
1684594531592001800,11.550001708984375,8.302495956420898,-6.873981475830078,3.6634113788604736
1684594531608874800,11.566874755859375,8.311469078063965,-6.701697826385498,3.5676984786987305
1684594531625747700,11.583747802734376,8.307282447814941,-6.75374174118042,3.4815568923950195
1684594531642608600,11.600608642578125,8.37966537475586,-7.0025954246521,3.4474592208862305
1684594531659493000,11.6174931640625,8.418548583984375,-7.203592777252197,3.4474592208862305
1684594531676365800,11.63436572265625,8.0081787109375,-7.168298244476318,3.3134610652923584
1684594531693238800,11.65123876953125,7.558926582336426,-6.903293132781982,3.035893678665161
1684594531710111200,11.668111328125,7.362117290496826,-6.586244106292725,2.7008986473083496
1684594531726984200,11.684984130859375,7.208378314971924,-6.317649841308594,2.41375994682312
1684594531743856600,11.701856689453125,7.050451755523682,-6.120242118835449,2.1894326210021973
1684594531760730000,11.718730224609375,6.94038200378418,-6.028716564178467,2.0506489276885986
1684594531777599500,11.735599609375,6.774080753326416,-6.109474182128906,1.9639091491699219
1684594531794477800,11.752477783203124,6.70289421081543,-6.262016773223877,1.882553219795227
1684594531811348200,11.76934814453125,6.627520561218262,-6.40438985824585,1.7389838695526123
1684594531828221200,11.78622119140625,6.374479293823242,-6.4510498046875,1.4895321130752563
1684594531845093000,11.803093017578124,5.9300127029418945,-6.199803352355957,1.140179991722107
1684594531861966300,11.81996630859375,5.4514479637146,-5.729015827178955,0.7818548083305359
1684594531878839600,11.836839599609375,5.058426856994629,-5.2492547035217285,0.45164528489112854
1684594531895712000,11.8537119140625,4.889732837677002,-4.855635166168213,0.18424734473228455
1684594531912584200,11.870584228515625,4.669593334197998,-4.60139799118042,-0.02632104977965355
1684594531929457700,11.887457763671875,4.425525665283203,-4.494917392730713,-0.11246266216039658
1684594531946330600,11.90433056640625,4.163511276245117,-4.557130813598633,0.035892341285943985
1684594531963203300,11.921203369140626,4.039682865142822,-4.561916351318359,0.3900300860404968
1684594531980075800,11.93807568359375,4.0426740646362305,-4.271786689758301,0.7920243144035339
1684594531996948700,11.95494873046875,4.155734539031982,-3.862015724182129,1.098903775215149
1684594532013821400,11.971821533203125,4.445266246795654,-3.6340994834899902,1.3818551301956177
1684594532030694700,11.988694580078125,4.913063049316406,-3.7124643325805664,1.6450655460357666
1684594532047566800,12.00556689453125,5.429912567138672,-4.11625337600708,1.8747764825820923
1684594532064439800,12.022439697265625,6.024528980255127,-4.802394866943359,2.008176326751709
1684594532081306600,12.039306640625,6.5042901039123535,-5.577669620513916,1.97407865524292
1684594532098185700,12.056185791015626,6.616752624511719,-6.180062770843506,1.7437695264816284
1684594532115058000,12.073057861328126,6.461219310760498,-6.642475605010986,1.4321043491363525
1684594532131931100,12.08993115234375,6.7310099601745605,-7.287939548492432,1.2496516704559326
1684594532148803600,12.106803466796874,7.235297679901123,-8.015955924987793,1.2299108505249023
1684594532165676800,12.1236767578125,7.274180889129639,-8.279764175415039,1.3920245170593262
1684594532182549000,12.140549072265625,6.881159782409668,-7.777271747589111,1.8137595653533936
1684594532199422200,12.157422119140625,6.99840784072876,-7.4015984535217285,2.3024935722351074
1684594532216295000,12.174294921875,7.65164852142334,-7.323233604431152,2.6811578273773193
1684594532233166300,12.191166259765625,8.042277336120605,-7.16231632232666,2.8677978515625
1684594532250041900,12.208041748046876,7.834699630737305,-6.611967086791992,2.806182861328125
1684594532266913300,12.224913330078126,7.551149845123291,-6.128018856048584,2.7637102603912354
1684594532283786000,12.241785888671876,7.87059211730957,-6.153741836547852,2.9551360607147217
1684594532300659200,12.2586591796875,8.080561637878418,-6.178866386413574,3.2093734741210938
1684594532317528800,12.27552880859375,7.975277900695801,-6.116652965545654,3.4295129776000977
1684594532334398500,12.2923984375,8.229515075683594,-6.491129398345947,3.6921253204345703
1684594532351277300,12.30927734375,8.569893836975098,-6.861418724060059,3.988835334777832
1684594532368150300,12.326150390625,7.967501163482666,-6.582056999206543,3.9792640209198
1684594532385022500,12.3430224609375,7.294519901275635,-6.3738813400268555,3.8021950721740723
1684594532401895700,12.359895751953125,8.088338851928711,-6.912266254425049,3.9116668701171875
1684594532418768400,12.376768310546876,9.05444049835205,-7.5463643074035645,4.1078782081604
1684594532435641000,12.39364111328125,9.046664237976074,-8.038687705993652,4.068994998931885
1684594532452513800,12.410513671875,9.029315948486328,-8.416155815124512,3.896113395690918
1684594532469386800,12.42738671875,8.93838882446289,-8.338987350463867,3.881756544113159
1684594532486259700,12.444259765625,8.660821914672852,-8.094919204711914,3.9774694442749023
1684594532503132700,12.461132568359375,8.525627136230469,-7.731209754943848,4.059423446655273
1684594532520005000,12.478005126953125,8.519046783447266,-7.2676005363464355,4.083950042724609
1684594532536877800,12.4948779296875,8.560322761535645,-6.909275531768799,4.118047714233398
1684594532553750500,12.51175048828125,8.755337715148926,-6.795616149902344,4.1659040451049805
1684594532570621700,12.52862158203125,8.659625053405762,-6.651448726654053,4.0558342933654785
1684594532587498500,12.54549853515625,8.091329574584961,-6.481558322906494,3.7639100551605225
1684594532604369200,12.562369140625,7.752745151519775,-6.474977970123291,3.5437703132629395
1684594532621242000,12.5792421875,7.892127513885498,-6.709474563598633,3.466601848602295
1684594532638115000,12.596114990234375,8.097909927368164,-6.853642463684082,3.418745279312134
1684594532654987300,12.6129873046875,7.643871784210205,-6.626922130584717,3.1507492065429688
1684594532671860200,12.629860107421875,7.194021224975586,-6.294320106506348,2.820539712905884
1684594532688733400,12.6467333984375,6.983452796936035,-6.106483459472656,2.5531418323516846
1684594532705606100,12.663606201171875,7.079165935516357,-6.144768714904785,2.2845473289489746
1684594532722478600,12.680478515625,7.380661487579346,-6.3601226806640625,2.073979139328003
1684594532739351800,12.697351806640626,7.275975227355957,-6.464210510253906,1.815554141998291
1684594532756224300,12.714224365234376,6.593422889709473,-6.269793510437012,1.4709876775741577
1684594532773086700,12.731086669921876,5.6859450340271,-5.92223596572876,1.174277663230896
1684594532789970000,12.747969970703124,5.045266628265381,-5.551348686218262,0.9541380405426025
1684594532806843000,12.7648427734375,4.801198482513428,-5.397609710693359,0.8009973764419556
1684594532823715300,12.78171533203125,5.164309501647949,-5.469992637634277,0.633499801158905
1684594532840588800,12.7985888671875,5.7750773429870605,-5.480760097503662,0.42771705985069275
1684594532857460500,12.81546044921875,5.6685967445373535,-5.154737949371338,0.18903298676013947
1684594532874334200,12.832334228515625,4.965106964111328,-4.559523582458496,0.01196411345154047
1684594532891207000,12.84920703125,4.142574310302734,-4.098307132720947,0.10348957777023315
1684594532908079900,12.866079833984376,3.7800614833831787,-4.121636867523193,0.4905286431312561
1684594532924940000,12.88293994140625,4.339982032775879,-4.531407833099365,1.0217353105545044
1684594532941813800,12.899813720703126,4.95074987411499,-4.692325115203857,1.4572290182113647
1684594532958700300,12.9167001953125,4.968696117401123,-4.425525665283203,1.7306089401245117
1684594532975571200,12.9335712890625,4.814359188079834,-4.0666022300720215,1.8221344947814941
1684594532992443600,12.950443603515625,4.7712883949279785,-3.975674867630005,1.8556339740753174
1684594533009316400,12.96731640625,4.957928657531738,-4.205984115600586,1.8550357818603516
1684594533026189300,12.984189208984375,5.494519233703613,-4.694717884063721,1.7018951177597046
1684594533043062300,13.001062255859376,6.222535133361816,-5.432305812835693,1.5050854682922363
1684594533059934700,13.017934814453126,6.879364967346191,-6.141179084777832,1.2987045049667358
1684594533076807400,13.034807373046876,6.828517436981201,-6.498906135559082,1.0301101207733154
1684594533093680600,13.0516806640625,6.1328043937683105,-6.725626468658447,0.8189435601234436
1684594533110553600,13.0685537109375,6.245266914367676,-7.405188083648682,0.8901300430297852
1684594533127409400,13.085409423828125,7.259225845336914,-8.111668586730957,1.2299108505249023
1684594533144298800,13.102298828125,7.587640762329102,-7.884350776672363,1.588834285736084
1684594533161171700,13.119171630859375,7.664809226989746,-6.99122953414917,1.9010975360870361
1684594533178044700,13.136044677734375,7.9728851318359375,-6.596413612365723,2.2510478496551514
1684594533194916900,13.152916748046875,8.320442199707031,-6.479165554046631,2.610569477081299
1684594533211790000,13.1697900390625,8.353343963623047,-6.399005889892578,2.9790642261505127
1684594533228662500,13.18666259765625,8.14815902709961,-6.413362979888916,3.314059257507324
1684594533245535700,13.20353564453125,8.321041107177734,-6.6490559577941895,3.6394832134246826
1684594533262408200,13.220408203125,8.636295318603516,-6.847062110900879,3.869194269180298
1684594533279281200,13.23728125,8.416753768920898,-6.7794647216796875,3.9840497970581055
1684594533296153900,13.25415380859375,7.843074321746826,-6.414559364318848,4.00319242477417
1684594533313027000,13.271027099609375,7.642077445983887,-6.346961975097656,4.108476638793945
1684594533329899500,13.2878994140625,8.158926963806152,-6.664609432220459,4.323830604553223
1684594533346772500,13.3047724609375,8.642276763916016,-7.073183536529541,4.48115873336792
1684594533363645200,13.321645263671876,9.216554641723633,-7.634300708770752,4.572085857391357
1684594533380518700,13.3385185546875,9.18006420135498,-8.030911445617676,4.480560302734375
1684594533397391600,13.3553916015625,9.219545364379883,-8.331808090209961,4.355535507202148
1684594533414262800,13.3722626953125,8.895318031311035,-8.368298530578613,4.183252334594727
1684594533431136500,13.389136474609375,8.245068550109863,-7.916653633117676,4.063611030578613
1684594533448009500,13.406009521484375,8.13260555267334,-7.256833076477051,4.064807415008545
1684594533464881700,13.422881591796875,8.641080856323242,-6.7902326583862305,4.098905086517334
1684594533481744400,13.439744384765625,9.055039405822754,-6.542575359344482,4.037290096282959
1684594533498627600,13.456627685546875,9.116654396057129,-6.389434814453125,3.7501513957977295
1684594533515500500,13.47350048828125,8.901300430297852,-6.234499454498291,3.386442184448242
1684594533532373000,13.490373046875,8.481359481811523,-6.223133563995361,3.1280174255371094
1684594533549246200,13.50724609375,8.14815902709961,-6.364908218383789,2.9599215984344482
1684594533566118700,13.52411865234375,8.02074146270752,-6.708278179168701,2.854039192199707
1684594533582992000,13.540991943359375,8.017151832580566,-6.985247611999512,2.743969440460205
1684594533599864600,13.557864501953125,7.830512046813965,-6.802196502685547,2.4951157569885254
1684594533616737500,13.574737548828125,7.613961696624756,-6.323033809661865,2.1655044555664062
1684594533633610000,13.59160986328125,7.417151927947998,-5.982056617736816,1.8975083827972412
1684594533650483200,13.608483154296875,7.073183536529541,-5.822933673858643,1.7060825824737549
1684594533667355100,13.625355224609375,6.81595516204834,-5.92223596572876,1.648654818534851
1684594533684228600,13.642228515625,6.760322093963623,-6.223133563995361,1.6767704486846924
1684594533701101300,13.659101318359374,6.7794647216796875,-6.299703598022461,1.576271891593933
1684594533717974300,13.675974365234374,6.497111797332764,-5.9922261238098145,1.3417752981185913
1684594533734846700,13.6928466796875,6.089733600616455,-5.516652584075928,1.0600204467773438
1684594533751720000,13.709719970703125,5.730212211608887,-5.127819061279297,0.8063812255859375
1684594533768592600,13.726592529296875,5.237888813018799,-4.8675994873046875,0.6149554252624512
1684594533785465600,13.743465576171875,4.727021217346191,-4.7365922927856445,0.47617170214653015
1684594533802337800,13.760337890625,4.311268329620361,-4.572684288024902,0.4331009089946747
1684594533819200300,13.7772001953125,4.268197536468506,-4.496711730957031,0.5527420043945312
1684594533836083700,13.794083740234376,4.286741733551025,-4.377668857574463,0.8063812255859375
1684594533852957000,13.81095703125,4.404588222503662,-4.044468402862549,1.098903775215149
1684594533869829400,13.827829345703124,4.569693088531494,-3.6634113788604736,1.4057832956314087
1684594533886702300,13.844702392578125,4.744967460632324,-3.3918261528015137,1.6839489936828613
1684594533903575000,13.861574951171875,5.069194793701172,-3.4031920433044434,1.9615163803100586
1684594533920447700,13.87844775390625,5.652445316314697,-3.7836508750915527,2.1960129737854004
1684594533937320400,13.895320556640625,6.308676719665527,-4.387838363647461,2.3294129371643066
1684594533954193700,13.912193603515625,6.654439926147461,-4.990829944610596,2.1852452754974365
1684594533971066400,13.92906640625,6.5180487632751465,-5.391029357910156,1.820937991142273
1684594533987939300,13.945939208984376,6.209972858428955,-5.776273727416992,1.4231312274932861
1684594534004811500,13.9628115234375,6.169294834136963,-6.324828624725342,1.1162517070770264
1684594534021679000,13.97967919921875,6.6592254638671875,-7.105486869812012,0.9433703422546387
1684594534038557400,13.996557373046874,7.272984504699707,-7.847859859466553,0.9284151792526245
1684594534055556000,14.01355615234375,7.186244487762451,-7.6474609375,1.0193424224853516
1684594534072302800,14.030302734375,6.9098734855651855,-6.686144828796387,1.2837493419647217
1684594534089176000,14.047176025390625,7.6151580810546875,-6.527021884918213,1.700698733329773
1684594534106048800,14.064048828125,8.459824562072754,-6.679564476013184,2.179861545562744
1684594534122921700,14.080921630859375,8.683553695678711,-6.5521464347839355,2.557927370071411
1684594534139794200,14.097794189453126,8.372486114501953,-6.303293228149414,2.7972097396850586
1684594534156667100,14.114667236328126,8.368298530578613,-6.5521464347839355,3.0173492431640625
1684594534173539800,14.131539794921874,8.876773834228516,-7.237690448760986,3.256033420562744
1684594534190413000,14.1484130859375,9.284749984741211,-7.894520282745361,3.4277184009552
1684594534207285500,14.165285400390625,9.4061861038208,-8.392227172851562,3.580260992050171
1684594534224158500,14.182158447265625,9.373882293701172,-8.703892707824707,3.8147575855255127
1684594534241031200,14.19903125,9.493523597717285,-8.809774398803711,4.121038913726807
1684594534257904000,14.215904052734375,9.68913745880127,-8.768498420715332,4.3794636726379395
1684594534274776600,14.232776611328125,9.735796928405762,-8.601000785827637,4.417748928070068
1684594534291649800,14.24964990234375,9.8207426071167,-8.280961036682129,4.2795634269714355
1684594534308522500,14.2665224609375,9.09272575378418,-7.523034572601318,4.1078782081604
1684594534325395500,14.2833955078125,8.489136695861816,-7.0097737312316895,4.1078782081604
1684594534342268000,14.300267822265624,8.455039024353027,-6.784848690032959,4.213760852813721
1684594534359140900,14.317140869140625,8.46341323852539,-6.574878215789795,4.333401679992676
1684594534376013600,14.334013671875,8.357531547546387,-6.235097408294678,4.233501434326172
1684594534392886800,14.35088671875,8.185248374938965,-6.177071571350098,4.228715896606445
1684594534409759200,14.36775927734375,8.25703239440918,-6.243472576141357,3.941577196121216
1684594534426632200,14.384632080078125,8.176275253295898,-6.309275150299072,3.510270833969116
1684594534443505000,14.4015048828125,7.819146156311035,-6.368497371673584,3.012563705444336
1684594534460378000,14.418378173828126,7.323233604431152,-6.356533527374268,2.5094728469848633
1684594534477253600,14.435253662109375,7.027719974517822,-6.39721155166626,2.1409780979156494
1684594534494120000,14.452119873046875,6.914061069488525,-6.63051176071167,1.9489539861679077
1684594534510995700,14.46899560546875,6.934998035430908,-6.940980434417725,1.786242127418518
1684594534527869400,14.485869384765625,6.835097789764404,-7.059424877166748,1.5272190570831299
1684594534544741400,14.502741455078125,6.357131481170654,-6.703492641448975,1.1545369625091553
1684594534561614300,14.5196142578125,5.584847927093506,-5.753541946411133,0.753140926361084
1684594534578487600,14.536487548828125,4.769493579864502,-4.560121536254883,0.48095735907554626
1684594534595360500,14.553360595703126,4.025924205780029,-3.596412420272827,0.3433700501918793
1684594534612232400,14.570232421875,3.3894333839416504,-3.073580741882324,0.39122650027275085
1684594534629106000,14.58710595703125,3.3230323791503906,-3.135794162750244,0.5156532526016235
1684594534645979000,14.603978759765624,4.4135613441467285,-3.899702787399292,0.7591229677200317
1684594534662851600,14.6208515625,5.279164791107178,-4.524827480316162,0.9840483069419861
1684594534679724300,14.637724365234375,4.982454776763916,-4.251447677612305,1.0845468044281006
1684594534696597000,14.654596923828125,4.34536600112915,-3.6472599506378174,1.109073281288147
1684594534713469700,14.6714697265625,4.254438877105713,-3.580260992050171,1.2287144660949707
1684594534730343200,14.68834326171875,4.628317356109619,-3.9457645416259766,1.444068431854248
1684594534747215400,14.70521533203125,5.20678186416626,-4.3447675704956055,1.6396816968917847
1684594534764088300,14.72208837890625,5.580062389373779,-4.690530776977539,1.7736797332763672
1684594534780961300,14.738961181640626,5.696712493896484,-5.101497650146484,1.8065811395645142
1684594534797834200,14.755834228515624,5.8851470947265625,-5.685346603393555,1.72941255569458
1684594534814706400,14.77270654296875,6.340980052947998,-6.3840508460998535,1.5996019840240479
1684594534831579600,14.78957958984375,7.1509504318237305,-7.232904434204102,1.4985052347183228
1684594534848452900,14.806452880859375,7.898707389831543,-8.070990562438965,1.4069796800613403
1684594534865325600,14.82332568359375,7.9040913581848145,-8.315058708190918,1.3878371715545654
1684594534882197800,14.84019775390625,6.756732940673828,-7.6666035652160645,1.6223337650299072
1684594534899071000,14.857071044921875,6.674180507659912,-7.347760200500488,2.1397817134857178
1684594534915943700,14.873943603515626,7.685148239135742,-7.342376232147217,2.7050859928131104
1684594534932817000,14.89081689453125,8.438288688659668,-7.241279602050781,3.1507492065429688
1684594534949679600,14.9076796875,8.58484935760498,-6.931408882141113,3.4235310554504395
1684594534966562300,14.924562255859374,8.234899520874023,-6.505486488342285,3.548556089401245
1684594534983434800,14.941434814453125,7.942376613616943,-6.212964057922363,3.6634113788604736
1684594535000308000,14.958307861328125,7.899305820465088,-6.2566328048706055,3.9122650623321533
1684594535017177000,14.975177001953124,8.168498039245605,-6.7076802253723145,4.199403762817383
1684594535034056700,14.992056640625,8.442476272583008,-7.3304123878479,4.4955153465271
1684594535050925800,15.00892578125,8.854640007019043,-7.728816986083984,4.595416069030762
1684594535067799300,15.02579931640625,7.934001445770264,-7.764111042022705,4.432105541229248
1684594535084671500,15.04267138671875,7.805387496948242,-7.75334358215332,4.3172502517700195
1684594535101542000,15.0595419921875,8.287541389465332,-7.774280548095703,4.4374895095825195
1684594535118420200,15.076420166015625,8.643473625183105,-7.421937465667725,4.529015064239502
1684594535135290600,15.09329052734375,9.120243072509766,-7.371688365936279,4.639084815979004
1684594535152162800,15.110162841796875,9.583852767944336,-7.578667640686035,4.677370071411133
1684594535169036000,15.1270361328125,9.364311218261719,-7.572685241699219,4.447659015655518
1684594535185908700,15.14390869140625,8.901898384094238,-7.51286506652832,4.141377925872803
1684594535202781400,15.160781494140625,8.443673133850098,-7.45364236831665,3.8919260501861572
1684594535219654100,15.177654052734376,8.391031265258789,-7.409973621368408,3.7818562984466553
1684594535236527000,15.194527099609376,8.24686336517334,-7.194021224975586,3.6436707973480225
1684594535253400000,15.211400146484374,7.968697547912598,-6.819544315338135,3.466601848602295
1684594535270273300,15.228273193359374,7.83410120010376,-6.57547664642334,3.3517463207244873
1684594535287145500,15.2451455078125,8.00638484954834,-6.618547439575195,3.342773199081421
1684594535304008000,15.262008056640624,8.011768341064453,-6.757331371307373,3.3134610652923584
1684594535320891100,15.27889111328125,7.7730841636657715,-6.756134510040283,3.193819999694824
1684594535337764600,15.2957646484375,7.2951178550720215,-6.558128833770752,3.0215368270874023
1684594535354636500,15.312636474609375,6.850651264190674,-6.236293792724609,2.830111026763916
1684594535371509800,15.329509765625,6.616154670715332,-6.062814235687256,2.7008986473083496
1684594535388382500,15.346382568359376,6.7310099601745605,-6.163312911987305,2.5525436401367188
1684594535405255200,15.363255126953124,6.932605266571045,-6.507281303405762,2.3228325843811035
1684594535422127900,15.3801279296875,6.843472957611084,-6.759724140167236,1.939382791519165
1684594535438998300,15.396998291015626,6.361319065093994,-6.689733982086182,1.4177473783493042
1684594535455876400,15.41387646484375,5.620141983032227,-6.184250354766846,0.867398202419281
1684594535472746800,15.430746826171875,4.758726119995117,-5.410770416259766,0.4372883439064026
1684594535489619200,15.447619140625,3.9972102642059326,-4.690530776977539,0.1501496136188507
1684594535506492200,15.4644921875,3.566502094268799,-4.3447675704956055,0.031106693670153618
1684594535523364900,15.48136474609375,3.518645763397217,-4.3447675704956055,0.07417750358581543
1684594535540238000,15.498238037109376,3.6813576221466064,-4.4650068283081055,0.2273181527853012
1684594535557110500,15.515110595703124,3.8333017826080322,-4.284348964691162,0.4139583110809326
1684594535573983500,15.5319833984375,3.9601213932037354,-3.7836508750915527,0.5868397355079651
1684594535590856400,15.5488564453125,3.7435710430145264,-3.3960134983062744,0.7597211599349976
1684594535607729400,15.5657294921875,3.7812578678131104,-3.267399311065674,1.0037890672683716
1684594535624601600,15.5826015625,4.215555191040039,-3.346362352371216,1.3435698747634888
1684594535641463800,15.5994638671875,4.893920421600342,-3.66520619392395,1.7599210739135742
1684594535658347500,15.616347412109375,5.592026710510254,-4.122235298156738,2.1092731952667236
1684594535675220500,15.633220458984376,6.142375946044922,-4.540380954742432,2.23848557472229
1684594535692093000,15.650093017578126,6.177670001983643,-5.0225348472595215,2.108675003051758
1684594535708966100,15.666966064453124,6.065805435180664,-5.5998029708862305,1.7922241687774658
1684594535725838800,15.6838388671875,6.393621921539307,-6.460621356964111,1.5326029062271118
1684594535742711800,15.7007119140625,7.04207706451416,-7.437490940093994,1.4171491861343384
1684594535759584000,15.717583984375,7.149155616760254,-8.011768341064453,1.435693621635437
1684594535776457200,15.734457275390625,6.953542709350586,-7.944769382476807,1.6319050788879395
1684594535793330200,15.751330078125,7.186244487762451,-7.774280548095703,1.9573289155960083
1684594535810203100,15.768203125,7.677371501922607,-7.77607536315918,2.1684954166412354
1684594535827075600,15.78507568359375,8.254639625549316,-7.764111042022705,2.283350944519043
1684594535843948500,15.801948486328126,8.50169849395752,-7.554739475250244,2.4466612339019775
1684594535860821200,15.8188212890625,7.999206066131592,-7.2436723709106445,2.7529425621032715
1684594535877694500,15.835694580078124,7.803592681884766,-7.22034215927124,3.207578659057617
1684594535894566700,15.852566650390624,8.26241683959961,-7.485945701599121,3.757927894592285
1684594535911440000,15.86943994140625,8.930612564086914,-7.685148239135742,4.231706619262695
1684594535928312600,15.8863125,8.806185722351074,-7.595417499542236,4.653441905975342
1684594535945185500,15.903185546875,8.197810173034668,-6.890730857849121,4.672584533691406
1684594535962058000,15.92005810546875,7.399205684661865,-6.419344902038574,4.553541660308838
1684594535978931000,15.936930908203125,7.437490940093994,-6.4289164543151855,4.481756687164307
1684594535995803400,15.953803466796876,7.724031448364258,-6.573083877563477,4.481756687164307
1684594536012676900,15.9706767578125,7.752745151519775,-6.558726787567139,4.438685894012451
1684594536029549300,15.98754931640625,7.409375190734863,-6.581458568572998,4.304089546203613
1684594536046422300,16.00442236328125,7.232904434204102,-6.618547439575195,4.179663181304932
1684594536063295000,16.021294921875,7.1509504318237305,-6.345765590667725,4.103092670440674
1684594536080168200,16.038168212890625,6.963113784790039,-5.842674732208252,3.902693748474121
1684594536097040100,16.0550400390625,6.870391845703125,-5.392225742340088,3.692723512649536
1684594536113901800,16.07190185546875,6.869793891906738,-5.172086238861084,3.568894863128662
1684594536130780400,16.088780517578126,7.256833076477051,-5.374279499053955,3.573082447052002
1684594536147658200,16.105658203125,7.922037601470947,-5.84446907043457,3.549154281616211
1684594536164531500,16.122531494140624,8.620741844177246,-6.501298904418945,3.462414264678955
1684594536181386800,16.13938671875,8.795417785644531,-7.1850481033325195,3.256033420562744
1684594536198277600,16.156277587890624,8.271987915039062,-7.459624767303467,2.8677978515625
1684594536215150600,16.173150634765626,7.590033531188965,-7.385447025299072,2.6285157203674316
1684594536232023000,16.19002294921875,7.479963779449463,-7.404589653015137,2.8289146423339844
1684594536248896000,16.20689599609375,8.147561073303223,-7.341179847717285,3.2793633937835693
1684594536265768700,16.223768798828125,8.636893272399902,-6.91765022277832,3.6053855419158936
1684594536282642000,16.240641845703124,8.391031265258789,-6.3152570724487305,3.7022948265075684
1684594536299514000,16.25751416015625,8.165507316589355,-5.985047817230225,3.8458642959594727
1684594536316387300,16.27438720703125,8.467002868652344,-6.235097408294678,4.137788772583008
1684594536333259500,16.291259521484374,8.70807933807373,-6.838686943054199,4.328616142272949
1684594536350133200,16.30813330078125,8.456833839416504,-7.186244487762451,4.184448719024658
1684594536367005400,16.32500537109375,7.8454670906066895,-7.001997470855713,3.835096597671509
1684594536383878400,16.34187841796875,7.219145774841309,-6.607181549072266,3.4713873863220215
1684594536400751400,16.35875146484375,6.993622303009033,-6.314060688018799,3.2608189582824707
1684594536417621800,16.375621826171876,7.442276477813721,-6.378068923950195,3.376272678375244
1684594536434499000,16.3924990234375,7.685746192932129,-6.38883638381958,3.5437703132629395
1684594536451370000,16.409369873046874,7.670791149139404,-6.293123722076416,3.524627685546875
1684594536468242400,16.426242431640624,7.618149280548096,-6.153741836547852,3.2518460750579834
1684594536485119000,16.443118896484375,7.503293514251709,-6.075974941253662,2.854637384414673
1684594536501984300,16.459984375,7.326822757720947,-6.09332275390625,2.5148565769195557
1684594536518861000,16.476861083984375,7.323233604431152,-6.265007972717285,2.3467607498168945
1684594536535733800,16.493733642578125,7.2711896896362305,-6.489335060119629,2.222334146499634
1684594536552606700,16.510606689453127,6.985845565795898,-6.544968128204346,2.0309081077575684
1684594536569479200,16.527479248046873,6.670591354370117,-6.481558322906494,1.810170292854309
1684594536586352000,16.54435205078125,6.450451850891113,-6.355935096740723,1.5852450132369995
1684594536603225000,16.56122509765625,6.269195556640625,-6.211169242858887,1.389033555984497
1684594536620098000,16.57809814453125,6.178267955780029,-6.172286033630371,1.2460623979568481
1684594536636970200,16.59497021484375,6.168696880340576,-6.205785751342773,1.1407781839370728
1684594536653843500,16.611843505859376,6.011368751525879,-6.176473617553711,1.054038405418396
1684594536670716400,16.62871630859375,5.787041664123535,-6.13699197769165,0.9678967595100403
1684594536687587300,16.64558740234375,5.715855121612549,-6.21774959564209,0.8530412912368774
1684594536704461600,16.662461669921875,5.5483574867248535,-6.073582172393799,0.6855437159538269
1684594536721334800,16.679334716796873,5.044668197631836,-5.445466041564941,0.5042873620986938
1684594536738207500,16.69620751953125,4.440480709075928,-4.5924248695373535,0.4139583110809326
1684594536755080700,16.713080810546874,4.1760735511779785,-4.1760735511779785,0.5533402562141418
1684594536771953000,16.729952880859376,4.5828537940979,-4.40757942199707,0.8159525394439697
1684594536788825600,16.74682568359375,5.404788017272949,-4.78803825378418,1.0648061037063599
1684594536805699000,16.763698974609376,5.427519798278809,-4.539782524108887,1.1515458822250366
1684594536822571800,16.78057177734375,4.823930263519287,-4.026522159576416,1.0755738019943237
1684594536839444000,16.79744384765625,4.4033918380737305,-3.800400495529175,0.9702895879745483
1684594536856317000,16.81431689453125,4.700101852416992,-3.9876389503479004,0.9457631707191467
1684594536873190000,16.83118994140625,5.0015974044799805,-4.284946918487549,0.9744769930839539
1684594536890063000,16.84806298828125,5.065007209777832,-4.581058979034424,0.9649057388305664
1684594536906935600,16.864935546875,5.520241737365723,-5.099104881286621,0.9499505758285522
1684594536923808300,16.881808349609376,6.215356826782227,-5.851647853851318,0.9302098155021667
1684594536940681500,16.898681396484374,6.646663188934326,-6.436094760894775,0.9296116232872009
1684594536957551600,16.915551513671875,6.44686222076416,-6.545566558837891,0.9296116232872009
1684594536974429200,16.93242919921875,6.175277233123779,-6.578467845916748,1.0253244638442993
1684594536991289300,16.949289306640626,6.772884368896484,-6.9583282470703125,1.2831511497497559
1684594537008172500,16.966172607421875,7.312466144561768,-7.070790767669678,1.604387640953064
1684594537025045200,16.983045166015625,7.430312633514404,-6.857231616973877,1.9489539861679077
1684594537041918000,16.99991796875,7.601997375488281,-6.829713821411133,2.2893331050872803
1684594537058791000,17.016791015625,7.979465484619141,-6.970292568206787,2.609971284866333
1684594537075663600,17.03366357421875,8.236693382263184,-6.952944278717041,2.8731818199157715
1684594537092536800,17.050536865234374,8.082955360412598,-6.694519519805908,3.0550363063812256
1684594537109409000,17.067408935546876,8.02492904663086,-6.479763507843018,3.208775281906128
1684594537126282200,17.0842822265625,8.263612747192383,-6.586244106292725,3.3858439922332764
1684594537143152000,17.101152099609376,8.779864311218262,-6.927819728851318,3.538984775543213
1684594537160030700,17.11803076171875,9.168100357055664,-7.378268718719482,3.5958142280578613
1684594537176889600,17.1348896484375,8.581260681152344,-7.275975227355957,3.4331023693084717
1684594537193773300,17.151773193359375,7.7730841636657715,-6.7902326583862305,3.279961585998535
1684594537210646300,17.168646240234374,7.528418064117432,-6.468996047973633,3.2751760482788086
1684594537227519200,17.185519287109376,7.675576686859131,-6.216553211212158,3.352344512939453
1684594537244391400,17.202391357421874,7.956135272979736,-6.064609050750732,3.415156126022339
1684594537261264600,17.2192646484375,8.133204460144043,-6.175277233123779,3.5060834884643555
1684594537278137600,17.2361376953125,8.076375007629395,-6.285346984863281,3.625126361846924
1684594537295010600,17.253010498046876,7.789236068725586,-6.107679843902588,3.658625841140747
1684594537311882800,17.2698828125,7.793423175811768,-5.96889591217041,3.6161532402038574
1684594537328756000,17.286755859375,8.051250457763672,-5.959324836730957,3.4103705883026123
1684594537345628700,17.303628662109375,7.969893932342529,-5.963512420654297,3.1232316493988037
1684594537362501600,17.320501708984374,8.008777618408203,-6.101099491119385,2.912663459777832
1684594537379374000,17.3373740234375,8.35872745513916,-6.532405853271484,2.878565549850464
1684594537396247000,17.3542470703125,8.70927619934082,-7.001997470855713,2.9353952407836914
1684594537413120000,17.3711201171875,8.910871505737305,-7.33759069442749,3.01196551322937
1684594537429988400,17.38798828125,8.839086532592773,-7.371089935302734,3.07417893409729
1684594537446865200,17.404865234375,8.781659126281738,-7.232904434204102,3.279961585998535
1684594537463738000,17.421738037109375,9.148359298706055,-7.138986587524414,3.548556089401245
1684594537480611000,17.438611083984377,9.161520004272461,-6.939185619354248,3.744767427444458
1684594537497483500,17.4554833984375,8.793622970581055,-6.775875568389893,3.864408493041992
1684594537514357000,17.47235693359375,8.550153732299805,-6.770491600036621,3.9840497970581055
1684594537531229700,17.489229736328124,8.57468032836914,-6.832705020904541,4.046263217926025
1684594537548102400,17.506102294921874,8.464012145996094,-6.683752059936523,3.926621913909912
1684594537564975400,17.522975341796876,8.062017440795898,-6.337390899658203,3.625126361846924
1684594537581837600,17.539837646484376,7.684549808502197,-6.1399827003479,3.390629768371582
1684594537598720800,17.556720703125,7.618149280548096,-6.182455539703369,3.3475589752197266
1684594537615593500,17.573593505859375,7.4847493171691895,-6.201598167419434,3.4097721576690674
1684594537632466700,17.590466796875,7.522436141967773,-6.201598167419434,3.438486099243164
1684594537649339000,17.6073388671875,7.765905857086182,-6.168696880340576,3.314059257507324
1684594537666212000,17.624212158203125,7.832306861877441,-6.053243160247803,2.9700911045074463
1684594537683074000,17.641073974609377,7.674380302429199,-5.965306758880615,2.53399920463562
1684594537699958000,17.6579580078125,7.5463643074035645,-6.021538257598877,2.1750757694244385
1684594537716830000,17.674829833984376,7.394420146942139,-6.206982135772705,1.9310078620910645
1684594537733703400,17.691703369140626,7.137789726257324,-6.473183631896973,1.7629120349884033
1684594537750573300,17.7085732421875,6.709474563598633,-6.605386734008789,1.6091731786727905
1684594537767452000,17.725451904296875,6.303891181945801,-6.550950050354004,1.4608181715011597
1684594537784321500,17.742321533203125,6.265007972717285,-6.492924213409424,1.2837493419647217
1684594537801194500,17.759194580078123,6.479763507843018,-6.416952133178711,1.054038405418396
1684594537818067200,17.776067138671873,6.436094760894775,-6.1675004959106445,0.7818548083305359
1684594537834940200,17.792940185546875,5.980860233306885,-5.730212211608887,0.5282155871391296
1684594537851812900,17.809812744140626,5.426323413848877,-5.383851051330566,0.39421752095222473
1684594537868685600,17.826685546875,5.020740032196045,-5.364109992980957,0.5617151260375977
1684594537885558500,17.84355859375,5.050052165985107,-5.584847927093506,0.9397810697555542
1684594537902431500,17.860431396484376,5.3078789710998535,-5.610570907592773,1.2269197702407837
1684594537919304000,17.877303955078126,5.535795211791992,-5.410770416259766,1.332802176475525
1684594537936176600,17.8941767578125,5.620141983032227,-5.0907301902771,1.2658032178878784
1684594537953049600,17.911049560546875,5.4951171875,-4.7264227867126465,1.1132607460021973
1684594537969922800,17.9279228515625,5.088935375213623,-4.615156650543213,1.0654042959213257
1684594537986795000,17.944794921875,4.722235679626465,-4.810171604156494,1.2083754539489746
1684594538003668200,17.961668212890626,4.536791801452637,-4.953741073608398,1.4470595121383667
1684594538020541000,17.978541015625,4.670191764831543,-4.835296154022217,1.6103696823120117
1684594538037413000,17.9954130859375,4.797609329223633,-4.5583271980285645,1.6301103830337524
1684594538054287000,18.012287109375,5.024927616119385,-4.219144344329834,1.4817553758621216
1684594538071159300,18.0291591796875,5.3108696937561035,-4.104887008666992,1.290927767753601
1684594538088032300,18.0460322265625,5.669793128967285,-4.339982032775879,1.1377872228622437
1684594538104905200,18.0629052734375,5.91505765914917,-4.861617565155029,1.0319048166275024
1684594538121767000,18.079766845703126,6.123233318328857,-5.583651542663574,0.9930213689804077
1684594538138650400,18.096650390625,6.288337707519531,-6.239284992218018,0.98703932762146
1684594538155523300,18.1135234375,6.208178520202637,-6.525825500488281,0.9487541913986206
1684594538172396300,18.130396240234376,6.180062770843506,-6.5491557121276855,0.8913264274597168
1684594538189268500,18.1472685546875,6.586244106292725,-6.784848690032959,0.9200403094291687
1684594538206142000,18.164141845703124,7.322635650634766,-7.227520942687988,1.1012966632843018
1684594538223014100,18.18101416015625,7.594819068908691,-7.35314416885376,1.456032633781433
1684594538239887600,18.1978876953125,7.440482139587402,-7.010372161865234,1.9776679277420044
1684594538256759800,18.214759765625,7.521239757537842,-6.873383045196533,2.5334010124206543
1684594538273633300,18.23163330078125,8.056035995483398,-7.106084823608398,3.11246395111084
1684594538290505700,18.248505615234375,8.97787094116211,-7.502097129821777,3.6580276489257812
1684594538307379000,18.26537890625,9.57487964630127,-7.658228874206543,4.031308174133301
1684594538324251100,18.282251220703124,9.04845905303955,-7.283154010772705,4.012165546417236
1684594538341124400,18.299124267578126,7.738986492156982,-6.609574317932129,3.7112679481506348
1684594538357997000,18.3159970703125,7.116852760314941,-6.162116527557373,3.548556089401245
1684594538374870000,18.3328701171875,6.963113784790039,-5.860620975494385,3.5772697925567627
1684594538391742500,18.349742431640625,7.383054256439209,-5.862415313720703,3.754936933517456
1684594538408615400,18.366615478515627,8.34855842590332,-6.368497371673584,4.027120590209961
1684594538425488100,18.383488037109377,9.07119083404541,-6.939784049987793,4.146761417388916
1684594538442361300,18.400361328125,8.766703605651855,-7.162914752960205,3.8733816146850586
1684594538459233500,18.417233642578125,7.8077802658081055,-7.082156658172607,3.4235310554504395
1684594538476119600,18.43411962890625,7.234699249267578,-6.850052833557129,3.0687949657440186
1684594538492979500,18.4509794921875,7.000202655792236,-6.657430648803711,2.9114668369293213
1684594538509852700,18.467852783203124,7.242475986480713,-6.471987247467041,2.954537868499756
1684594538526724900,18.484724853515626,9.462417602539062,-6.962515830993652,3.3475589752197266
1684594538543597800,18.501597900390625,7.304689407348633,-6.535397052764893,3.308675527572632
1684594538560472600,18.51847265625,7.846065521240234,-5.929414749145508,3.0753753185272217
1684594538577341200,18.535341064453124,8.432905197143555,-5.998208045959473,3.257229804992676
1684594538594218200,18.55221826171875,8.140382766723633,-5.676971912384033,3.1956145763397217
1684594538611089000,18.5690888671875,8.179863929748535,-5.887540340423584,3.1615169048309326
1684594538627961900,18.5859619140625,8.601598739624023,-6.38584566116333,3.1375887393951416
1684594538644834800,18.602834716796874,9.763314247131348,-7.0067830085754395,3.4576287269592285
1684594538661696800,18.61969677734375,8.925228118896484,-7.3776702880859375,3.6293137073516846
1684594538678580500,18.63658056640625,8.151748657226562,-7.284350395202637,3.55214524269104
1684594538695452700,18.65345263671875,8.49033260345459,-7.180262565612793,3.6819558143615723
1684594538712326100,18.670326171875,8.81396198272705,-7.028916358947754,3.7639100551605225
1684594538729198000,18.687197998046877,8.822935104370117,-6.8895344734191895,3.625126361846924
1684594538746071300,18.7040712890625,8.608179092407227,-6.864409923553467,3.404986619949341
1684594540399597800,20.357597900390626,7.69830846786499,-7.191628456115723,3.528217077255249
1684594540416469800,20.3744697265625,8.556135177612305,-7.070790767669678,3.7489547729492188
1684594540433343000,20.391343017578127,8.583653450012207,-6.741179466247559,3.744767427444458
1684594540450215700,20.408215576171877,7.995616912841797,-6.375676155090332,3.5581271648406982
1684594540467088600,20.425088623046875,7.599006652832031,-6.197410583496094,3.562912940979004
1684594540483961000,20.441961181640625,7.408178806304932,-6.183053493499756,3.759124279022217
1684594540500834000,20.458833984375,7.503891944885254,-6.365506649017334,3.9792640209198
1684594540517706800,20.475706787109374,7.533204078674316,-6.461219310760498,3.926621913909912
1684594540534579700,20.492579833984376,7.375277519226074,-6.297310829162598,3.5437703132629395
1684594540551452000,20.509451904296874,7.3884382247924805,-6.0711894035339355,3.0077781677246094
1684594540568324900,20.526324951171876,7.3884382247924805,-5.983851432800293,2.524427890777588
1684594540585198000,20.543197998046875,7.317251682281494,-6.078367710113525,2.179861545562744
1684594540602071000,20.560071044921877,7.332805156707764,-6.378666877746582,2.002194404602051
1684594540618943500,20.576943603515623,7.229315280914307,-6.698108673095703,1.8346967697143555
1684594540635816400,20.59381640625,7.020541667938232,-6.873981475830078,1.5948163270950317
1684594540652689200,20.610689208984375,6.69571590423584,-6.819544315338135,1.2598211765289307
1684594540669562000,20.62756201171875,6.256034851074219,-6.501298904418945,0.8865407705307007
1684594540686434300,20.644434326171876,5.839085578918457,-5.997610092163086,0.5473581552505493
1684594540703307500,20.6613076171875,5.512465000152588,-5.522634506225586,0.2793620526790619
1684594540720180500,20.678180419921876,5.158327579498291,-5.224728107452393,0.10229317098855972
1684594540737053200,20.69505322265625,4.861617565155029,-5.008177757263184,0.064606212079525
1684594540753925600,20.711925537109376,4.522434711456299,-4.807180881500244,0.23688943684101105
1684594540770798800,20.728798828125,4.106083869934082,-4.548157691955566,0.4139583110809326
1684594540787671300,20.74567138671875,3.7561333179473877,-4.169493675231934,0.5144568681716919
1684594540804544500,20.76254443359375,3.597608804702759,-3.806382656097412,0.615553617477417
1684594540821405700,20.77940576171875,4.035495281219482,-3.62153697013855,0.8793623447418213
1684594540838290000,20.7962900390625,4.087539196014404,-3.5365917682647705,1.2143574953079224
1684594540855162600,20.81316259765625,3.834498405456543,-3.5030922889709473,1.4871392250061035
1684594540872035600,20.83003564453125,4.006781578063965,-3.6191442012786865,1.7455641031265259
1684594540888908000,20.846907958984374,4.59421968460083,-3.9565322399139404,2.0614166259765625
1684594540905781000,20.863781005859376,5.292325496673584,-4.260420799255371,2.262413740158081
1684594540922653700,20.88065380859375,5.521438121795654,-4.347160339355469,2.181057929992676
1684594540939526700,20.897526611328125,5.560321807861328,-4.470390796661377,1.8604196310043335
1684594540956398800,20.91439892578125,5.91087007522583,-5.068596363067627,1.6396816968917847
1684594540973272000,20.93127197265625,6.831508636474609,-6.237490653991699,1.609771490097046
1684594540990145000,20.94814501953125,7.9585280418396,-7.63729190826416,1.6564314365386963
1684594541007017700,20.965017822265626,8.434102058410645,-8.389236450195312,1.6319050788879395
1684594541023890200,20.98189013671875,7.462615489959717,-7.6253275871276855,1.3932210206985474
1684594541040763400,20.998763427734374,6.709474563598633,-6.5904316902160645,1.3507484197616577
1684594541057635800,21.0156357421875,7.39561653137207,-6.49770975112915,1.7485551834106445
1684594541074508800,21.0325087890625,8.581260681152344,-7.128817081451416,2.255833625793457
1684594541091381200,21.04938134765625,9.30449104309082,-7.9591264724731445,2.633301258087158
1684594541108254200,21.066254150390623,9.548559188842773,-8.13260555267334,2.7625136375427246
1684594541125127200,21.083127197265625,8.434102058410645,-7.325626373291016,2.623729944229126
1684594541142000000,21.100000244140624,7.7353973388671875,-6.845267295837402,2.648256540298462
1684594541158872600,21.11687255859375,8.394021987915039,-6.9206414222717285,3.0933215618133545
1684594541175745500,21.13374560546875,8.732605934143066,-7.033103942871094,3.735196113586426
1684594541192618000,21.150617919921874,8.770891189575195,-7.121040344238281,4.405186653137207
1684594541209491500,21.167491455078125,9.268000602722168,-7.396812915802002,5.0362935066223145
1684594541226363600,21.18436376953125,10.228120803833008,-7.725826263427734,5.352744102478027
1684594541243236900,21.20123681640625,10.262816429138184,-8.127222061157227,5.261219024658203
1684594541260109600,21.218109619140623,9.46181869506836,-8.137392044067383,4.791627407073975
1684594541276982300,21.234982177734373,8.617751121520996,-8.191229820251465,4.412963390350342
1684594541293854500,21.2518544921875,8.896514892578125,-8.62732219696045,4.360321044921875
1684594541310727700,21.268727783203126,9.236893653869629,-8.9581298828125,4.34536600112915
1684594541327600400,21.285600341796876,8.84805965423584,-8.391629219055176,4.044468402862549
1684594541344473600,21.3024736328125,8.476573944091797,-7.314260482788086,3.6771702766418457
1684594541361338600,21.319338623046875,8.311469078063965,-6.591628074645996,3.5676984786987305
1684594541378219000,21.336218994140626,8.635098457336426,-6.511468410491943,3.7112679481506348
1684594541395091500,21.353091552734377,8.994022369384766,-6.785446643829346,3.830909013748169
1684594541411964700,21.369964599609375,8.47896671295166,-6.7692952156066895,3.6394832134246826
1684594541428834000,21.386833984375,7.661818027496338,-6.425925254821777,3.184846878051758
1684594541445712600,21.403712646484376,7.341179847717285,-6.089135646820068,2.7637102603912354
1684594541462582800,21.420582763671874,7.369893550872803,-6.069394588470459,2.500499725341797
1684594541479456000,21.4374560546875,7.6043901443481445,-6.318248271942139,2.3330020904541016
1684594541496328000,21.454327880859374,7.662416458129883,-6.437291145324707,2.1415762901306152
1684594541513201000,21.471200927734376,7.361518859863281,-6.388238430023193,1.949552297592163
1684594541530073900,21.488073974609375,6.893722057342529,-6.252445697784424,1.705484390258789
1684594541546947000,21.504947021484377,6.387639999389648,-6.058627128601074,1.4518451690673828
1684594541563819300,21.5218193359375,5.971887111663818,-5.880361557006836,1.2460623979568481
1684594541580692200,21.538692138671873,5.646463394165039,-5.682953834533691,1.0689935684204102
1684594541597562000,21.55556201171875,5.13021183013916,-5.360520839691162,0.96370929479599
1684594541614440400,21.5724404296875,4.569693088531494,-4.7850470542907715,0.8973084688186646
1684594541631310300,21.589310302734376,3.9086756706237793,-4.0803608894348145,0.8835497498512268
1684594541648183300,21.606183349609374,3.3577284812927246,-3.476173162460327,0.9505487680435181
1684594541665056000,21.623055908203124,2.9551360607147217,-3.026322364807129,1.0612168312072754
1684594541681928400,21.639928466796874,2.944368362426758,-2.7828526496887207,1.195214867591858
1684594541698802700,21.656802734375,3.2931220531463623,-2.89890456199646,1.4015958309173584
1684594541715674400,21.67367431640625,3.838087558746338,-3.2644083499908447,1.5876377820968628
1684594541732547000,21.690547119140625,4.383052825927734,-3.6059837341308594,1.6785650253295898
1684594541749420300,21.707420166015623,4.694717884063721,-3.9702908992767334,1.7168502807617188
1684594541766292500,21.72429248046875,4.767699241638184,-4.295116424560547,1.6253247261047363
1684594541783165400,21.74116552734375,4.845465660095215,-4.634299278259277,1.49611234664917
1684594541800038400,21.758038330078126,5.271986484527588,-5.103890895843506,1.4093725681304932
1684594541816911000,21.7749111328125,5.765506267547607,-5.669195175170898,1.332203984260559
1684594541833783800,21.79178369140625,6.207580089569092,-6.344569206237793,1.293320655822754
1684594541850656800,21.80865673828125,6.820741176605225,-7.073183536529541,1.3357932567596436
1684594541867529200,21.825529296875,7.472187042236328,-7.744968891143799,1.441077470779419
1684594541884402400,21.84240234375,8.02791976928711,-8.353941917419434,1.5744773149490356
1684594541901275000,21.85927490234375,8.191229820251465,-8.522037506103516,1.7324036359786987
1684594541918147800,21.87614794921875,7.6253275871276855,-7.789834022521973,1.9627127647399902
1684594541935020500,21.8930205078125,7.04925537109375,-7.000202655792236,2.283949136734009
1684594541951893500,21.9098935546875,7.3058857917785645,-6.86381196975708,2.767897605895996
1684594541968765700,21.926765625,8.050651550292969,-7.0061845779418945,3.308675527572632
1684594541985639000,21.943638916015626,8.81396198272705,-7.115057945251465,3.7974095344543457
1684594542002511600,21.96051171875,9.349356651306152,-7.342376232147217,4.223331928253174
1684594542019384800,21.977384765625,9.866206169128418,-7.803592681884766,4.471587181091309
1684594542036256800,21.9942568359375,9.920044898986816,-8.172087669372559,4.5475592613220215
1684594542053130000,22.0111298828125,9.410971641540527,-8.529216766357422,4.685744762420654
1684594542070002700,22.028002685546873,9.044869422912598,-8.743971824645996,5.0015974044799805
1684594542086875600,22.044875732421875,9.294321060180664,-9.161520004272461,5.326423168182373
1684594542103748000,22.061748046875,9.385248184204102,-9.29611587524414,5.436492919921875
1684594542120620800,22.078620849609376,8.987442016601562,-8.806783676147461,5.303092956542969
1684594542137491200,22.0954912109375,8.264211654663086,-7.976474285125732,5.050052165985107
1684594542154369300,22.112369384765625,7.8418779373168945,-7.3675007820129395,4.777270317077637
1684594542171239000,22.129239013671874,7.734799385070801,-6.927221775054932,4.552943229675293
1684594542188112400,22.1461123046875,7.623532772064209,-6.510272026062012,4.400400638580322
1684594542204984800,22.16298486328125,7.832904815673828,-6.31944465637207,4.338187217712402
1684594542221858000,22.179858154296873,7.770691394805908,-6.300302028656006,4.2281174659729
1684594542238730200,22.196730224609375,7.21735143661499,-6.2398834228515625,3.926621913909912
1684594542255603200,22.213603271484374,7.045666217803955,-6.190830230712891,3.634697675704956
1684594542272476000,22.230475830078124,7.399205684661865,-6.311069488525391,3.476771354675293
1684594542289349000,22.24734912109375,7.814360618591309,-6.4217376708984375,3.2231321334838867
1684594542306221300,22.26422119140625,8.00518798828125,-6.33499813079834,2.778067111968994
1684594542323094500,22.281094482421874,7.584649562835693,-6.059823513031006,2.2133610248565674
1684594542339967200,22.29796728515625,6.9583282470703125,-5.798407554626465,1.734796404838562
1684594542356840200,22.314840087890627,6.577271461486816,-5.810969829559326,1.4428720474243164
1684594542373712100,22.331712158203125,6.3254265785217285,-6.125027656555176,1.3130614757537842
1684594542390585300,22.34858544921875,6.007181167602539,-6.444469451904297,1.2550355195999146
1684594542407463700,22.365463623046875,5.601597785949707,-6.380461692810059,1.077966570854187
1684594542424331300,22.382331298828124,5.251049518585205,-5.795416355133057,0.786640465259552
1684594542441203500,22.399203369140626,4.90408992767334,-4.938187599182129,0.48095735907554626
1684594542458076700,22.41607666015625,4.563112735748291,-4.24785852432251,0.251844584941864
1684594542474947600,22.432947509765626,4.159922122955322,-3.7256247997283936,0.14715859293937683
1684594542491813400,22.4498134765625,3.8153557777404785,-3.428316593170166,0.33858439326286316
1684594542508713000,22.466712890625,3.844667673110962,-3.606581926345825,0.8554341197013855
1684594542525566200,22.483566162109376,4.04985237121582,-3.751945972442627,1.333998680114746
1684594542542440400,22.5004404296875,4.19282341003418,-3.6957144737243652,1.6354942321777344
1684594542559313400,22.5173134765625,4.416552543640137,-3.5820555686950684,1.8029918670654297
1684594542576185300,22.534185302734375,4.693521499633789,-3.6406795978546143,1.937588095664978
1684594542593058600,22.55105859375,5.133800983428955,-4.067798614501953,1.994417667388916
1684594542609931300,22.56793115234375,5.938387393951416,-4.844269275665283,1.9124635457992554
1684594542626804000,22.584803955078126,6.55693244934082,-5.61116886138916,1.7491533756256104
1684594542643676700,22.6016767578125,6.812366008758545,-6.218348026275635,1.5427724123001099
1684594542660549600,22.618549560546874,6.857829570770264,-6.810571670532227,1.317248821258545
1684594542677422600,22.635422607421877,6.931408882141113,-7.274180889129639,1.1874382495880127
1684594542694295300,22.65229541015625,6.941578388214111,-7.365108013153076,1.287936806678772
1684594542711167700,22.669167724609373,7.208378314971924,-7.324429988861084,1.800000786781311
1684594542728042000,22.6860419921875,8.062616348266602,-7.486543655395508,2.4705893993377686
1684594542744912000,22.702911865234373,8.82114028930664,-7.619345664978027,3.0113673210144043
1684594542761775600,22.719775634765625,9.131011009216309,-7.606783390045166,3.2991042137145996
1684594542778658800,22.736658935546874,8.60040283203125,-7.294519901275635,3.279961585998535
1684594542795531800,22.75353173828125,7.778468132019043,-6.957131862640381,3.366103172302246
1684594542812404500,22.770404541015626,7.567899703979492,-6.857231616973877,3.6340994834899902
1684594542829277700,22.787277587890625,8.045866012573242,-7.0887370109558105,3.9690945148468018
1684594542846150000,22.80414990234375,8.188837051391602,-7.051648139953613,4.165306091308594
1684594542863022800,22.82102294921875,7.8819580078125,-6.625127792358398,4.18983268737793
1684594542879895600,22.8378955078125,7.657032489776611,-6.419344902038574,4.208974838256836
1684594542896768500,22.8547685546875,8.068597793579102,-6.754938125610352,4.261617183685303
1684594542913640700,22.871640625,8.748757362365723,-7.474579811096191,4.347160339355469
1684594542930514000,22.888513916015626,9.138189315795898,-8.22114086151123,4.346562385559082
1684594542947386600,22.90538671875,9.31166934967041,-8.714061737060547,4.178466320037842
1684594542964259600,22.922259521484374,9.025727272033691,-8.726624488830566,3.934398651123047
1684594542981132000,22.939132080078124,8.284550666809082,-8.293522834777832,3.7956149578094482
1684594542998005000,22.9560048828125,8.144570350646973,-7.849056243896484,3.9254255294799805
1684594543014877400,22.97287744140625,8.5764741897583,-7.420741081237793,4.112663745880127
1684594543031750700,22.989750732421875,8.526823043823242,-6.818347930908203,4.089334011077881
1684594543048623000,23.006623046875,8.175676345825195,-6.1710896492004395,3.8985064029693604
1684594543065496000,23.02349609375,7.7832536697387695,-5.772684574127197,3.707080364227295
1684594543082368800,23.04036865234375,7.8077802658081055,-5.988038539886475,3.716651678085327
1684594543099241700,23.05724169921875,7.943572998046875,-6.572485446929932,3.9314076900482178
1684594543116114000,23.074114013671874,7.543971538543701,-6.853642463684082,4.0935211181640625
1684594543132987100,23.090987060546876,6.8895344734191895,-6.631109714508057,3.9978084564208984
1684594543149859600,23.107859619140626,6.717251300811768,-6.367300987243652,3.820739507675171
1684594543166732500,23.124732666015625,7.136593341827393,-6.324828624725342,3.5772697925567627
1684594543183605000,23.14160498046875,7.4949188232421875,-6.391827583312988,3.1752755641937256
1684594543200467200,23.15846728515625,7.528418064117432,-6.467201232910156,2.6727828979492188
1684594543217351000,23.175350830078123,7.0893354415893555,-6.335596084594727,2.1649062633514404
1684594543234223400,23.192223388671874,6.440282344818115,-6.131608009338379,1.7485551834106445
1684594543251095800,23.209095703125,6.015556335449219,-6.086742401123047,1.48055899143219
