time,seconds_elapsed,z,y,x
1684592003739841500,0.131841552734375,6.127420425415039,4.115654945373535,0.2919243574142456
1684592003756721200,0.14872119140625,8.502297401428223,4.167698860168457,1.3076776266098022
1684592003773598000,0.165597900390625,7.800003528594971,3.279961585998535,1.7515461444854736
1684592003790458000,0.1824580078125,8.864211082458496,3.1645078659057617,2.4987051486968994
1684592003807343900,0.19934375,13.694124221801758,1.2185449600219727,4.274179458618164
1684592003824215300,0.21621533203125,12.001800537109375,0.22492532432079315,-1.2508480548858643
1684592003841088300,0.233088134765625,5.769095420837402,2.407179594039917,-3.850649833679199
1684592003857961500,0.24996142578125,7.584051132202148,3.882952928543091,-1.9956140518188477
1684592003874834400,0.26683447265625,8.707481384277344,5.580062389373779,-1.4189438819885254
1684592003891708200,0.283708251953125,5.429314613342285,4.90109920501709,-2.9288148880004883
1684592003908581400,0.300581298828125,6.607181549072266,2.6979074478149414,-2.758326292037964
1684592003925454300,0.317454345703125,8.10389232635498,2.851048231124878,-2.6811578273773193
1684592003942327600,0.33432763671875,10.286744117736816,3.3708889484405518,-3.10528564453125
1684592003959200500,0.351200439453125,9.257232666015625,2.14935302734375,-4.542773723602295
1684592003976073700,0.36807373046875,8.529216766357422,1.6103696823120117,-4.151547431945801
1684592003992928000,0.384927978515625,9.851250648498535,3.6873397827148438,-2.9377880096435547
1684592004009820400,0.4018203125,10.308877944946289,2.5842485427856445,-2.038684844970703
1684592004026683000,0.418682861328125,10.64806079864502,1.2305090427398682,-2.0691933631896973
1684592004043567400,0.4355673828125,10.986644744873047,1.3770694732666016,-3.710071563720703
1684592004060439000,0.45243896484375,11.4921293258667,2.48315167427063,-3.2207393646240234
1684592004077312500,0.4693125,9.356534957885742,3.3062827587127686,-2.861815929412842
1684592004094186800,0.486186767578125,7.833503246307373,2.527418851852417,-3.040679454803467
1684592004111056600,0.503056640625,6.999604225158691,3.40797758102417,-2.321636199951172
1684592004127935200,0.519935302734375,6.246463298797607,3.297907829284668,-3.126222848892212
1684592004144806100,0.53680615234375,7.482954502105713,3.1956145763397217,-4.064209461212158
1684592004161679000,0.55367919921875,8.647063255310059,3.1549365520477295,-4.46560525894165
1684592004178552300,0.57055224609375,8.037490844726562,2.8552355766296387,-4.303491592407227
1684592004195425300,0.58742529296875,6.9720869064331055,2.1475582122802734,-4.78803825378418
1684592004212298500,0.604298583984375,6.327819347381592,2.3030917644500732,-5.013561725616455
1684592004229171700,0.621171630859375,5.60399055480957,2.0482561588287354,-5.253442287445068
1684592004246044200,0.638044189453125,7.51286506652832,1.7306089401245117,-4.831707000732422
1684592004262919400,0.65491943359375,10.211968421936035,0.711864709854126,-4.208974838256836
1684592004279779800,0.67177978515625,14.353346824645996,1.5326029062271118,-3.2344980239868164
1684592004296664600,0.68866455078125,13.989039421081543,3.1166515350341797,-3.500699520111084
1684592004313537500,0.70553759765625,9.053244590759277,2.9557342529296875,-3.7812578678131104
1684592004330400500,0.722400390625,9.743574142456055,-0.015553346835076809,-5.296513080596924
1684592004347273500,0.7392734375,10.334002494812012,-0.9858429431915283,-4.235296249389648
1684592004364157400,0.756157470703125,8.097311973571777,-0.007178467698395252,-4.73300313949585
1684592004381030400,0.773030517578125,7.012166976928711,0.6753742098808289,-4.7611188888549805
1684592004397901300,0.7899013671875,6.879364967346191,0.33020952343940735,-4.335794448852539
1684592004414779600,0.806779541015625,7.269395351409912,-0.5994020700454712,-3.8530426025390625
1684592004431647500,0.8236474609375,6.8273210525512695,-1.9040886163711548,-5.309673309326172
1684592004448525800,0.84052587890625,7.528418064117432,-1.7497515678405762,-6.6352972984313965
1684592004465396200,0.857396240234375,7.419544696807861,-0.7722834944725037,-7.332805156707764
1684592004482269400,0.87426953125,7.055835723876953,-0.5623133182525635,-6.658029079437256
1684592004499143000,0.891142822265625,6.560521602630615,-0.7435696125030518,-6.227919101715088
1684592004516016000,0.90801611328125,6.7345991134643555,-1.2747762203216553,-6.309275150299072
1684592004532889300,0.924889404296875,6.903293132781982,-1.7120646238327026,-7.501499176025391
1684592004549762600,0.941762451171875,7.068996429443359,-1.4063814878463745,-7.611568927764893
1684592004566632700,0.9586328125,7.466803073883057,-1.7461622953414917,-7.750352382659912
1684592004583511000,0.975510986328125,8.207381248474121,-2.1092731952667236,-7.037291526794434
1684592004600388600,0.992388671875,8.425726890563965,-1.9351953268051147,-6.270989894866943
1684592004617255200,1.009255126953125,8.414361000061035,-1.5134602785110474,-6.471987247467041
1684592004634128400,1.02612841796875,8.286943435668945,-0.6532405614852905,-6.3224358558654785
1684592004651001600,1.043001708984375,7.94716215133667,-0.37926238775253296,-6.418148517608643
1684592004667861200,1.059861328125,7.911868095397949,-1.153340458869934,-6.586244106292725
1684592004684747500,1.07674755859375,7.933403491973877,-1.6701902151107788,-6.433701992034912
1684592004701610800,1.09361083984375,7.871788501739502,-1.7467604875564575,-6.357131481170654
1684592004718494500,1.110494384765625,7.733004570007324,-1.7407784461975098,-6.64486837387085
1684592004735367400,1.127367431640625,7.377072334289551,-0.916451096534729,-6.882954120635986
1684592004752238000,1.144238037109375,6.92901611328125,-1.0145567655563354,-7.304689407348633
1684592004769116700,1.16111669921875,6.356533527374268,-2.0201404094696045,-7.732406139373779
1684592004785985500,1.177985595703125,6.352345943450928,-2.163111686706543,-7.8664045333862305
1684592004802861300,1.194861328125,6.819544315338135,-2.1373889446258545,-7.291528701782227
1684592004819733500,1.2117333984375,6.8757758140563965,-1.9387845993041992,-6.683752059936523
1684592004836606700,1.228606689453125,7.147959232330322,-2.1266210079193115,-6.410970211029053
1684592004853480000,1.24547998046875,7.4739813804626465,-2.4131617546081543,-6.8273210525512695
1684592004870342400,1.26234228515625,7.0995049476623535,-1.8233308792114258,-7.2095746994018555
1684592004887226400,1.279226318359375,6.445067882537842,-1.5236297845840454,-7.688138961791992
1684592004904099300,1.296099365234375,6.309275150299072,-1.083350419998169,-7.668996810913086
1684592004920973600,1.3129736328125,6.6107707023620605,-1.26699960231781,-7.300501823425293
1684592004937845800,1.329845703125,7.504489898681641,-1.6707884073257446,-7.35314416885376
1684592004954714600,1.346714599609375,7.790432453155518,-1.6965112686157227,-7.176074981689453
1684592004971592200,1.36359228515625,7.785048484802246,-1.540379524230957,-6.548557281494141
1684592004988460300,1.380460205078125,7.860422611236572,-1.4219348430633545,-6.21356201171875
1684592005005337900,1.397337890625,8.12123966217041,-0.9690931439399719,-5.96889591217041
1684592005022212600,1.414212646484375,8.024331092834473,-0.7214360237121582,-5.666802406311035
1684592005039084500,1.43108447265625,7.603792190551758,-0.4624129831790924,-5.4179487228393555
1684592005055947500,1.447947509765625,7.759923934936523,-0.22432711720466614,-5.154139995574951
1684592005072829000,1.464828857421875,7.835896015167236,-0.1585244983434677,-5.020142078399658
1684592005089697800,1.48169775390625,8.285746574401855,-0.4893322288990021,-5.178068161010742
1684592005106578000,1.498577880859375,8.718847274780273,-0.31345975399017334,-5.230710506439209
1684592005123451000,1.515450927734375,8.766105651855469,-0.19381862878799438,-5.234897613525391
1684592005140323800,1.53232373046875,8.92821979522705,-0.0849452018737793,-5.158327579498291
1684592005157197000,1.549197021484375,8.822935104370117,-0.04127619042992592,-5.239683151245117
1684592005174070800,1.56607080078125,8.809176445007324,-0.21296121180057526,-5.388636589050293
1684592005190943700,1.58294384765625,8.780462265014648,-0.15553347766399384,-5.378467082977295
1684592005207817000,1.59981689453125,8.595019340515137,-0.3164508044719696,-5.651846885681152
1684592005224690400,1.6166904296875,8.3898344039917,-0.19142581522464752,-5.804987907409668
1684592005241558300,1.633558349609375,8.413763046264648,-0.2871387302875519,-5.862415313720703
1684592005258425600,1.650425537109375,8.681758880615234,-0.5264210104942322,-5.910272121429443
1684592005275309300,1.667309326171875,9.32722282409668,-0.867398202419281,-6.168696880340576
1684592005292182800,1.684182861328125,9.633503913879395,-1.0683952569961548,-6.308078765869141
1684592005309051400,1.701051513671875,9.829715728759766,-1.179063320159912,-6.274579048156738
1684592005325929500,1.717929443359375,9.78664493560791,-1.1718848943710327,-5.5136613845825195
1684592005342800100,1.734800048828125,9.189635276794434,-1.0761719942092896,-4.805386066436768
1684592005359677700,1.751677734375,8.669196128845215,-0.9942178130149841,-4.374678134918213
1684592005376549000,1.768549072265625,8.316853523254395,-1.1419745683670044,-4.078566074371338
1684592005393419300,1.785419189453125,7.940581798553467,-1.4087743759155273,-4.011567115783691
1684592005410307600,1.8023076171875,7.357331275939941,-1.0055837631225586,-4.011567115783691
1684592005427168500,1.81916845703125,7.5637125968933105,-1.3495519161224365,-4.304089546203613
1684592005444041500,1.83604150390625,7.953144073486328,-1.9519450664520264,-4.753940582275391
1684592005460914400,1.85291455078125,8.067401885986328,-1.9555343389511108,-5.314459323883057
1684592005477788700,1.86978857421875,8.11525821685791,-1.9214365482330322,-5.653641700744629
1684592005494660900,1.886660888671875,8.048258781433105,-1.8065811395645142,-5.591428279876709
1684592005511534000,1.9035341796875,8.066802978515625,-1.7443677186965942,-5.5387864112854
1684592005528407600,1.920407470703125,8.047660827636719,-1.7018951177597046,-5.371288776397705
1684592005545280800,1.93728076171875,8.187641143798828,-2.1954147815704346,-5.127819061279297
1684592005562154000,1.954154052734375,8.668598175048828,-3.0903303623199463,-5.204987525939941
1684592005579027200,1.971027099609375,8.208578109741211,-2.7182464599609375,-4.549354076385498
1684592005595900200,1.987900146484375,7.5433735847473145,-2.2438695430755615,-4.060619831085205
1684592005612773000,2.004773193359375,6.925426959991455,-1.6109678745269775,-4.0558342933654785
1684592005629638000,2.021637939453125,6.719046115875244,-1.179063320159912,-4.476373195648193
1684592005646519800,2.038519775390625,6.939784049987793,-1.441077470779419,-4.9740800857543945
1684592005663393000,2.05539306640625,7.432705402374268,-1.8681962490081787,-4.955535888671875
1684592005680263700,2.072263671875,7.694719314575195,-1.7647067308425903,-4.672584533691406
1684592005697139500,2.089139404296875,7.72104024887085,-1.3124631643295288,-4.145565032958984
1684592005714012700,2.1060126953125,6.949953556060791,-0.5443671345710754,-4.2987060546875
1684592005730888400,2.122888427734375,6.642475605010986,-1.062413215637207,-5.045864582061768
1684592005747758800,2.1397587890625,7.052844524383545,-2.2187447547912598,-5.755336761474609
1684592005764632000,2.156632080078125,7.406982421875,-2.4538395404815674,-5.812764644622803
1684592005781505500,2.173505615234375,6.76510763168335,-1.9184455871582031,-5.147559642791748
1684592005798378500,2.19037841796875,6.5521464347839355,-1.124626636505127,-5.050650596618652
1684592005815251700,2.207251708984375,6.417550563812256,-0.8165507316589355,-5.60099983215332
1684592005832125000,2.224125,6.907480716705322,-1.6002001762390137,-6.247660160064697
1684592005848998000,2.240997802734375,7.526623725891113,-2.4610180854797363,-6.808178424835205
1684592005865868300,2.257868408203125,8.070990562438965,-2.6739792823791504,-6.468397617340088
1684592005882747100,2.2747470703125,7.9830546379089355,-2.2893331050872803,-5.520241737365723
1684592005899617500,2.291617431640625,6.939784049987793,-2.641077995300293,-5.018945693969727
1684592005916495000,2.3084951171875,4.586442947387695,-2.2259232997894287,-5.636891841888428
1684592005933364200,2.3253642578125,3.4265220165252686,-1.8370895385742188,-6.68016242980957
1684592005950229500,2.3422294921875,2.7732813358306885,-1.8574285507202148,-7.101897716522217
1684592005967109000,2.359109130859375,2.6147570610046387,-2.751147747039795,-6.973881721496582
1684592005983984400,2.375984375,2.9563324451446533,-3.5377883911132812,-6.318846225738525
1684592006000858600,2.392858642578125,2.89890456199646,-4.61276388168335,-6.506682872772217
1684592006017728300,2.409728271484375,3.4366915225982666,-6.460621356964111,-7.9591264724731445
1684592006034602800,2.426602783203125,3.0424740314483643,-6.7621169090271,-9.232706069946289
1684592006051476200,2.443476318359375,2.5016961097717285,-6.284748554229736,-9.993623733520508
1684592006068349700,2.460349609375,2.495713949203491,-5.983851432800293,-10.055238723754883
1684592006085222400,2.477222412109375,2.0865414142608643,-6.227919101715088,-11.166107177734375
1684592006102095600,2.494095703125,1.7126628160476685,-6.8004021644592285,-12.842279434204102
1684592006118969000,2.510968994140625,1.1736794710159302,-7.735995769500732,-14.547164916992188
1684592006135842300,2.52784228515625,1.1928220987319946,-7.6666035652160645,-15.489937782287598
1684592006152715500,2.544715576171875,1.0396814346313477,-7.439285755157471,-16.47099494934082
1684592006169588500,2.56158837890625,1.420140266418457,-6.101099491119385,-16.7802677154541
1684592006186462000,2.5784619140625,1.674975872039795,-4.384249210357666,-15.65803337097168
1684592006203320300,2.5953203125,1.9004993438720703,-3.6735808849334717,-13.4703950881958
1684592006220210700,2.612210693359375,1.6558332443237305,-3.5258240699768066,-11.292327880859375
1684592006237072100,2.629072021484375,0.5228317379951477,-3.104687452316284,-10.01456069946289
1684592006253963800,2.6459638671875,-0.6783652305603027,-2.1230318546295166,-9.343972206115723
1684592006270827800,2.662827880859375,-1.649253010749817,-1.6139588356018066,-8.956335067749023
1684592006287701200,2.679701171875,-3.593421459197998,-0.9314061999320984,-8.128418922424316
1684592006304574000,2.696573974609375,-8.93539810180664,-1.2562319040298462,-5.523232936859131
1684592006321447200,2.713447265625,-6.598806858062744,-1.1222338676452637,-4.817948341369629
1684592006338320100,2.730320068359375,-6.7896342277526855,-2.321636199951172,-4.575675010681152
1684592006355191000,2.74719091796875,-6.943373203277588,-5.4418768882751465,-4.914259433746338
1684592006372069400,2.7640693359375,-1.6271194219589233,-4.677370071411133,-7.40399169921875
1684592006388939800,2.780939697265625,-2.256431818008423,-4.72163724899292,-7.974081516265869
1684592006405813200,2.797813232421875,-1.9974087476730347,-3.9637107849121094,-7.637889862060547
1684592006422686200,2.814686279296875,-0.7776673436164856,-4.828716278076172,-7.336992263793945
1684592006439559400,2.831559326171875,-0.3206382393836975,-4.718048095703125,-6.283552169799805
1684592006456432400,2.848432373046875,-2.090130567550659,-3.6293137073516846,-5.617749214172363
1684592006473305900,2.865305908203125,-3.4372897148132324,-3.2099716663360596,-5.326423168182373
1684592006490179000,2.882178955078125,-3.8739798069000244,-3.6227335929870605,-6.0400824546813965
1684592006507054600,2.8990546875,-1.9986051321029663,-6.458826541900635,-2.2133610248565674
1684592006523923000,2.9159228515625,-0.8344969153404236,-8.884550094604492,-0.9810572862625122
1684592006540798700,2.932798828125,-2.341975212097168,-9.969695091247559,-0.8201399445533752
1684592006557671700,2.949671630859375,-4.59421968460083,-10.929815292358398,-2.129014015197754
1684592006574545000,2.966544921875,-5.733801364898682,-8.605786323547363,-2.7732813358306885
1684592006591418400,2.98341845703125,-4.35254430770874,-10.085747718811035,-7.019345283508301
1684592006608291300,3.000291259765625,-7.091728210449219,-14.390435218811035,-6.451648235321045
1684592006625164500,3.01716455078125,-1.521835207939148,-11.736196517944336,-6.192026615142822
1684592006642027000,3.034027099609375,-2.843869686126709,-6.856035232543945,-8.12542724609375
1684592006658924300,3.05092431640625,-4.642076015472412,-8.074580192565918,-8.075178146362305
1684592006675784000,3.067783935546875,-4.944169998168945,-11.251649856567383,-6.5042901039123535
1684592006692657200,3.0846572265625,-1.7407784461975098,-10.799407005310059,-5.98026180267334
1684592006709530600,3.101530517578125,-1.786242127418518,-8.94257640838623,-6.772884368896484
1684592006726402000,3.118402099609375,-3.3577284812927246,-7.296314239501953,-7.465606689453125
1684592006743275500,3.135275634765625,-3.716651678085327,-6.908079147338867,-7.398009300231934
1684592006760153000,3.152153076171875,-2.56510591506958,-6.242276191711426,-7.530810832977295
1684592006777023000,3.16902294921875,-3.0939197540283203,-5.182853698730469,-8.02791976928711
1684592006793908200,3.185908203125,-4.124628067016602,-5.185246467590332,-7.64028263092041
1684592006810769400,3.202769287109375,-4.161716938018799,-4.362115859985352,-6.160920143127441
1684592006827643000,3.219642822265625,-3.0586254596710205,-4.72881555557251,-6.241677761077881
1684592006844516000,3.23651611328125,-1.9405791759490967,-5.328815937042236,-4.767699241638184
1684592006861389000,3.25338916015625,-1.4159528017044067,-5.349753379821777,-2.89172625541687
1684592006878262300,3.27026220703125,-0.8081758618354797,-4.7575297355651855,-1.7419748306274414
1684592006895135500,3.287135498046875,-1.43389892578125,-4.494318962097168,-2.713460922241211
1684592006912008400,3.304008544921875,-1.3411771059036255,-3.76570463180542,-3.6604204177856445
1684592006928870000,3.320869873046875,-0.9104689955711365,-3.061018466949463,-3.070589542388916
1684592006945748700,3.337748779296875,-0.37507495284080505,-2.276172637939453,-2.341975212097168
1684592006962628400,3.35462841796875,-0.7501499056816101,-1.6067804098129272,-1.9250258207321167
1684592006979501600,3.37150146484375,-0.5288137793540955,-3.1591241359710693,-2.7499513626098633
1684592006996364300,3.3883642578125,-0.17706887423992157,-8.360522270202637,-4.55055046081543
1684592007013237200,3.4052373046875,-0.2267199456691742,-15.870396614074707,-6.2297139167785645
1684592007030126800,3.422126953125,-1.0097711086273193,-23.80918312072754,-5.507081508636475
1684592007046994200,3.438994140625,-3.071187973022461,-26.16192626953125,-0.9206385016441345
1684592007063867100,3.4558671875,-4.839483737945557,-22.26102638244629,2.8013970851898193
1684592007080737300,3.4727373046875,-1.6031911373138428,-12.597014427185059,4.805386066436768
1684592007097617200,3.4896171875,10.168299674987793,-5.407779216766357,3.3553354740142822
1684592007114487000,3.506487060546875,-1.7491533756256104,-8.411968231201172,3.9391841888427734
1684592007131360000,3.523360107421875,-16.39083480834961,-9.993623733520508,3.1645078659057617
1684592007148233000,3.54023291015625,-10.774880409240723,-9.169894218444824,1.3208380937576294
1684592007165106200,3.557106201171875,-1.7455641031265259,-10.170692443847656,0.2566302418708801
1684592007181979600,3.573979736328125,0.29850462079048157,-10.64686393737793,-1.0253244638442993
1684592007198852900,3.590852783203125,1.0683952569961548,-11.130812644958496,-1.547558069229126
1684592007215726000,3.60772607421875,1.8681962490081787,-10.64088249206543,-1.469791293144226
1684592007232599300,3.624599365234375,1.6600207090377808,-9.952945709228516,-1.0289137363433838
1684592007249472300,3.64147216796875,1.805384635925293,-9.360722541809082,-1.176072359085083
1684592007266345200,3.65834521484375,1.8143577575683594,-9.298508644104004,-1.1282159090042114
1684592007283218400,3.675218505859375,0.623330295085907,-9.615557670593262,-0.8662018179893494
1684592007300092000,3.692091796875,-1.1264212131500244,-9.801599502563477,-0.8578268885612488
1684592007316965000,3.708965087890625,-2.1361923217773438,-10.209575653076172,-0.7728816866874695
1684592007333838300,3.72583837890625,-1.8149559497833252,-10.491929054260254,-0.9690931439399719
1684592007350715100,3.742715087890625,-0.6711867451667786,-10.299306869506836,-1.0923235416412354
1684592007367584500,3.75958447265625,-0.4713860750198364,-10.126425743103027,-1.5900306701660156
1684592007384447700,3.77644775390625,0.7573283910751343,-9.528220176696777,-3.469592809677124
1684592007401324500,3.793324462890625,1.1288141012191772,-9.32004451751709,-4.800002098083496
1684592007418204200,3.8102041015625,0.6993024349212646,-9.297910690307617,-3.704089403152466
1684592007435080000,3.827079833984375,0.17347964644432068,-8.121838569641113,-1.319043517112732
1684592007451951400,3.843951416015625,0.42293140292167664,-7.424928665161133,0.6197410821914673
1684592007468820500,3.860820556640625,0.3008974492549896,-7.968099594116211,1.8113667964935303
1684592007485696800,3.87769677734375,-0.18843477964401245,-9.640682220458984,2.3018953800201416
1684592007502570000,3.894570068359375,-0.8380861282348633,-10.482955932617188,1.6977076530456543
1684592007519443200,3.911443115234375,-1.3052847385406494,-10.570294380187988,0.8309076428413391
1684592007536316700,3.928316650390625,-1.552343726158142,-10.710872650146484,0.1986042857170105
1684592007553189600,3.945189697265625,-1.317248821258545,-11.068599700927734,-0.42352959513664246
1684592007570066400,3.96206640625,-0.10348957777023315,-11.438888549804688,-1.1126625537872314
1684592007586935800,3.978935791015625,1.2687941789627075,-11.020742416381836,-1.7336000204086304
1684592007603809000,3.99580908203125,1.8077775239944458,-9.90688419342041,-2.3784656524658203
1684592007620682200,4.01268212890625,1.6516457796096802,-8.958727836608887,-2.8414769172668457
1684592007637545000,4.029544921875,1.0582258701324463,-8.416155815124512,-3.205185890197754
1684592007654429000,4.046428955078125,1.1012966632843018,-8.496912956237793,-3.300898790359497
1684592007671302000,4.063302001953125,0.6783652305603027,-8.844470977783203,-3.492922782897949
1684592007688175000,4.080175048828125,-1.0133603811264038,-9.219545364379883,-4.11625337600708
1684592007705048000,4.097048095703125,-2.6847469806671143,-9.89133071899414,-4.869394302368164
1684592007721910800,4.113910888671875,-2.490330219268799,-10.679765701293945,-5.18105936050415
1684592007738794500,4.13079443359375,-1.7258232831954956,-11.032109260559082,-4.668995380401611
1684592007755673600,4.147673583984375,-1.088136076927185,-10.755738258361816,-3.328416347503662
1684592007772541000,4.164541015625,-0.2727817893028259,-9.588638305664062,-2.919841766357422
1684592007789414400,4.181414306640625,0.6400800347328186,-8.849854469299316,-3.057429075241089
1684592007806286800,4.198286865234375,1.093519926071167,-8.947361946105957,-3.0239295959472656
1684592007823161300,4.215161376953125,1.2556337118148804,-8.880363464355469,-3.0999016761779785
1684592007840033500,4.232033447265625,1.0689935684204102,-8.82233715057373,-3.1381869316101074
1684592007856906800,4.24890673828125,1.0307083129882812,-8.812766075134277,-3.119044303894043
1684592007873780200,4.2657802734375,1.1168500185012817,-8.794221878051758,-3.0903303623199463
1684592007890653200,4.282653076171875,1.1126625537872314,-9.014361381530762,-2.8181469440460205
1684592007907526400,4.2995263671875,1.0755738019943237,-9.249456405639648,-2.4640090465545654
1684592007924399600,4.316399658203125,0.8464609980583191,-9.18724250793457,-2.3060827255249023
1684592007941281800,4.33328173828125,0.6269195079803467,-9.157930374145508,-2.296511650085449
1684592007958145800,4.350145751953125,0.6029912829399109,-9.257830619812012,-2.3880369663238525
1684592007975019000,4.36701904296875,0.8333004713058472,-9.449256896972656,-2.589034080505371
1684592007991892500,4.383892578125,0.9571290612220764,-9.491728782653809,-2.9383862018585205
1684592008008763000,4.400762939453125,0.9290133714675903,-9.538987159729004,-3.2303106784820557
1684592008025642800,4.417642822265625,0.833898663520813,-9.57607650756836,-3.397808074951172
1684592008042507800,4.4345078125,0.666999340057373,-9.522835731506348,-3.4791641235351562
1684592008059387600,4.4513876953125,0.4893322288990021,-9.33559799194336,-3.507878065109253
1684592008076258000,4.468258056640625,0.41216370463371277,-9.163912773132324,-3.407379388809204
1684592008093131300,4.48513134765625,0.45942193269729614,-9.049654960632324,-3.311068296432495
1684592008110005000,4.5020048828125,0.3643072545528412,-9.145368576049805,-3.067598581314087
1684592008126878000,4.5188779296875,0.29790642857551575,-9.212367057800293,-2.9958138465881348
1684592008143751000,4.5357509765625,0.26500511169433594,-9.30329418182373,-2.9479575157165527
1684592008160624400,4.552624267578125,0.34636107087135315,-9.346364974975586,-2.9048867225646973
1684592008177497600,4.56949755859375,0.40378883481025696,-9.428318977355957,-2.713460922241211
1684592008194370300,4.586370361328125,0.3798605799674988,-9.481559753417969,-2.612962245941162
1684592008211243800,4.603243896484375,0.21236300468444824,-9.342177391052246,-2.5603201389312744
1684592008228117000,4.620116943359375,0.11665010452270508,-9.294321060180664,-2.517249345779419
1684592008244990200,4.636990234375,0.18843477964401245,-9.303893089294434,-2.550748825073242
1684592008261863400,4.653863525390625,0.11724831163883209,-9.32303524017334,-2.5076780319213867
1684592008278733000,4.670733154296875,-0.049651071429252625,-9.432506561279297,-2.5704896450042725
1684592008295598600,4.6875986328125,-0.3026920557022095,-9.378069877624512,-2.8002007007598877
1684592008312482800,4.70448291015625,-0.3415754437446594,-9.047262191772461,-3.1441688537597656
1684592008329356000,4.72135595703125,-0.14656038582324982,-8.980263710021973,-3.3882367610931396
1684592008346226700,4.738226806640625,-0.016749758273363113,-9.123832702636719,-3.4504501819610596
1684592008363102500,4.7551025390625,-0.0933200865983963,-9.181859016418457,-3.263810157775879
1684592008379979800,4.771979736328125,-0.07956135272979736,-8.995817184448242,-3.1345977783203125
1684592008396846300,4.788846435546875,0.08135596662759781,-8.666205406188965,-3.311068296432495
1684592008413723000,4.805722900390625,0.12801600992679596,-8.474181175231934,-3.5742788314819336
1684592008430595300,4.82259521484375,0.37088751792907715,-8.263612747192383,-3.9565322399139404
1684592008447468300,4.83946826171875,0.5670989751815796,-8.47896671295166,-4.147958278656006
1684592008464341500,4.856341552734375,0.4103690981864929,-8.678768157958984,-4.215555191040039
1684592008481214700,4.873214599609375,0.5198407173156738,-8.58784008026123,-4.497908592224121
1684592008498088000,4.890087890625,1.5487544536590576,-9.33559799194336,-4.842474937438965
1684592008514961200,4.906961181640625,2.4777679443359375,-11.283354759216309,-5.102694511413574
1684592008531834400,4.92383447265625,1.6211373805999756,-12.852448463439941,-5.511867046356201
1684592008548707300,4.940707275390625,0.02632104977965355,-13.649258613586426,-5.896512985229492
1684592008565580300,4.957580322265625,-0.259621262550354,-13.75035572052002,-5.198407173156738
1684592008582453800,4.974453857421875,-0.24167509377002716,-12.503096580505371,-3.4259238243103027
1684592008599327000,4.991326904296875,-2.0853450298309326,-11.897712707519531,-2.3156540393829346
1684592008616200200,5.0082001953125,-5.403591632843018,-12.429516792297363,-1.6719847917556763
1684592008633073200,5.0250732421875,-4.479962348937988,-11.944372177124023,-1.7569299936294556
1684592008649936000,5.041935791015625,-1.2705888748168945,-10.65942668914795,-1.7012969255447388
1684592008666812700,5.058812744140625,0.5042873620986938,-9.565308570861816,-1.6701902151107788
1684592008683692800,5.07569287109375,0.7052844762802124,-8.691329956054688,-1.6498512029647827
1684592008700566300,5.092566162109375,-0.41934216022491455,-8.796614646911621,-2.018944025039673
1684592008717438500,5.1094384765625,-1.1653046607971191,-9.548559188842773,-2.513660192489624
1684592008734311700,5.126311767578125,-0.3080759048461914,-10.296316146850586,-2.757728099822998
1684592008751187500,5.1431875,1.7832510471343994,-10.765907287597656,-2.8486554622650146
1684592008768058600,5.16005859375,2.355135679244995,-10.663016319274902,-2.74755859375
1684592008784931800,5.176931884765625,1.7234305143356323,-10.198209762573242,-2.5220351219177246
1684592008801805000,5.19380517578125,0.3122633695602417,-9.333803176879883,-2.2540390491485596
1684592008818678300,5.21067822265625,-0.7393822073936462,-8.720044136047363,-1.8370895385742188
1684592008835551500,5.227551513671875,-1.3124631643295288,-8.566305160522461,-1.454836130142212
1684592008852424700,5.2444248046875,-0.97926265001297,-8.481958389282227,-1.2197413444519043
1684592008869297700,5.261297607421875,-0.7980063557624817,-8.444271087646484,-1.0713863372802734
1684592008886168600,5.27816845703125,-0.6897311210632324,-8.191828727722168,-0.989432156085968
1684592008903046700,5.295046630859375,-0.6562315821647644,-8.182855606079102,-0.8554341197013855
1684592008919917000,5.3119169921875,-0.6717849373817444,-7.906484127044678,-0.4295116662979126
1684592008936790800,5.328790771484375,-0.4737788736820221,-7.406982421875,0.3517449200153351
1684592008953663700,5.345663818359375,-0.45224347710609436,-6.911668300628662,0.893121063709259
1684592008970537000,5.362536865234375,-0.5928218364715576,-6.453442573547363,1.2813565731048584
1684592008987410000,5.379409912109375,-0.7226324677467346,-6.233303070068359,1.4632110595703125
1684592009004283100,5.396283203125,-1.0414760112762451,-6.32363224029541,1.5296118259429932
1684592009021156400,5.41315625,-1.7258232831954956,-6.9756760597229,1.4093725681304932
1684592009038029600,5.430029541015625,-2.923431158065796,-7.959724426269531,0.6364908218383789
1684592009054903000,5.446903076171875,-4.569094657897949,-8.935996055603027,-0.5186443328857422
1684592009071776300,5.4637763671875,-5.807978630065918,-10.430912017822266,-1.2245270013809204
1684592009088649200,5.480649169921875,-6.9068827629089355,-12.2135648727417,-2.012363910675049
1684592009105522400,5.4975224609375,-8.051250457763672,-13.353744506835938,-3.215355396270752
1684592009122395400,5.5143955078125,-7.739584922790527,-12.569497108459473,-3.6161532402038574
1684592009139268600,5.5312685546875,-5.253442287445068,-10.582856178283691,-2.301297187805176
1684592009156141800,5.548141845703125,-2.9766714572906494,-8.778069496154785,-0.6418746709823608
1684592009173015000,5.56501513671875,-2.688336133956909,-7.180262565612793,0.3026920557022095
1684592009189888500,5.581888427734375,-3.0490541458129883,-6.40020227432251,0.4468596279621124
1684592009206762000,5.598761962890625,-3.82373046875,-8.189435958862305,0.14775680005550385
1684592009223640800,5.615640869140625,-3.865604877471924,-12.894323348999023,-1.1832507848739624
1684592009240508000,5.6325078125,-2.569293260574341,-17.194225311279297,-1.6235301494598389
1684592009257380900,5.649380859375,-3.0251259803771973,-19.998014450073242,-1.9525432586669922
1684592009274254000,5.666254150390625,-2.7176482677459717,-14.793027877807617,-2.132603168487549
1684592009291127800,5.6831279296875,-1.76051926612854,-8.636295318603516,-1.454836130142212
1684592009308000300,5.700000244140625,-0.17587246000766754,-5.638088226318359,-0.19202402234077454
1684592009324874000,5.7168740234375,0.3978067636489868,-3.59043025970459,0.2225325107574463
1684592009341746700,5.73374658203125,0.9667003750801086,-2.799004316329956,0.39122650027275085
1684592009358620000,5.750619873046875,1.8921245336532593,-3.9589250087738037,0.41874396800994873
1684592009375493000,5.7674931640625,3.0209386348724365,-6.996613502502441,-0.09152546525001526
1684592009392366300,5.784366455078125,4.237090587615967,-11.395817756652832,-0.7417750358581543
1684592009409239800,5.80123974609375,3.6155550479888916,-14.495121002197266,-1.1527422666549683
1684592009426111000,5.818111083984375,2.1613171100616455,-14.613566398620605,-1.6995022296905518
1684592009442988000,5.834988037109375,-4.46560525894165,-10.765907287597656,-2.8564319610595703
1684592009459859500,5.851859375,-1.5649060010910034,-8.629714965820312,-2.478964328765869
1684592009476732200,5.868732177734375,-0.42831525206565857,-6.639484405517578,-2.633899450302124
1684592009493605400,5.88560546875,-0.828514814376831,-6.682555675506592,-3.864408493041992
1684592009510465500,5.902465576171875,-0.22552353143692017,-8.247461318969727,-3.8368911743164062
1684592009527354600,5.919354736328125,-1.9184455871582031,-9.639486312866211,-3.342175006866455
1684592009544225000,5.93622509765625,-2.111665964126587,-10.093523979187012,-3.06999135017395
1684592009561098000,5.953097900390625,0.24287149310112,-9.705288887023926,-2.6422743797302246
1684592009577958700,5.969958740234375,1.0121639966964722,-8.929415702819824,-2.386840581893921
1684592009594844700,5.9868447265625,0.8566305041313171,-8.226524353027344,-2.204387903213501
1684592009611718000,6.0037177734375,0.6891329288482666,-8.21276569366455,-1.8550357818603516
1684592009628590800,6.0205908203125,0.50907301902771,-8.523234367370605,-1.7312071323394775
1684592009645464300,6.03746435546875,0.21655045449733734,-9.18724250793457,-1.6366907358169556
1684592009662337500,6.054337646484375,-0.2147558331489563,-9.912267684936523,-1.6085749864578247
1684592009679210800,6.071210693359375,-0.3086741268634796,-10.25623607635498,-1.628315806388855
1684592009696073500,6.088073486328125,0.24167509377002716,-9.506086349487305,-2.1822543144226074
1684592009712957000,6.10495703125,0.8548358678817749,-8.893523216247559,-3.1818559169769287
1684592009729830100,6.121830078125,1.2526426315307617,-9.361918449401855,-3.583850145339966
1684592009746703000,6.138703125,0.08793623000383377,-10.29033374786377,-3.710071563720703
1684592009763576300,6.155576416015625,-1.989033818244934,-10.878968238830566,-4.439284324645996
1684592009780449500,6.172449462890625,-0.9720842242240906,-11.066804885864258,-5.090131759643555
1684592009797323000,6.189322998046875,1.1599208116531372,-11.001002311706543,-5.4143595695495605
1684592009814196200,6.2061962890625,-0.14476576447486877,-12.576675415039062,-6.326025009155273
1684592009831069400,6.2230693359375,-2.9312076568603516,-14.57767391204834,-7.3304123878479
1684592009847942400,6.2399423828125,0.8757730722427368,-13.60200023651123,-6.75792932510376
1684592009864815400,6.2568154296875,2.503490686416626,-11.775678634643555,-5.0362935066223145
1684592009881689000,6.273689208984375,0.5988038778305054,-10.479366302490234,-3.2171499729156494
1684592009898562000,6.29056201171875,-2.3736801147460938,-10.305887222290039,-1.9884356260299683
1684592009915435300,6.307435302734375,-2.691925525665283,-10.692926406860352,-1.7688941955566406
1684592009932308500,6.32430859375,-0.8937192559242249,-10.677970886230469,-2.160120725631714
1684592009949171000,6.3411708984375,0.16749759018421173,-11.12602710723877,-2.246262311935425
1684592009966051300,6.35805126953125,0.5796613097190857,-11.624930381774902,-1.9214365482330322
1684592009982920700,6.374920654296875,0.597607433795929,-11.420942306518555,-1.4620146751403809
1684592009999801300,6.39180126953125,0.7238288521766663,-10.805987358093262,-0.9487541913986206
1684592010016674000,6.408674072265625,0.13519448041915894,-10.466206550598145,-0.3409772217273712
1684592010033547300,6.42554736328125,1.0618150234222412,-9.634101867675781,0.19202402234077454
1684592010050410200,6.44241015625,1.0145567655563354,-8.544769287109375,0.4707878530025482
1684592010067293700,6.459293701171875,0.09810572862625122,-7.370491981506348,0.34217363595962524
1684592010084167000,6.4761669921875,-0.9068797826766968,-6.463612079620361,0.09391828626394272
1684592010101035800,6.493035888671875,-2.3204398155212402,-6.032904148101807,-0.15972091257572174
1684592010117900500,6.509900634765625,-2.9114668369293213,-6.212365627288818,-0.29431718587875366
1684592010134784000,6.526783935546875,-2.094916343688965,-6.3631134033203125,-0.3086741268634796
1684592010151649300,6.543649169921875,-0.9367900490760803,-6.113063812255859,-0.3170489966869354
1684592010168530400,6.560530517578125,-0.18065811693668365,-5.661418437957764,-0.4169493317604065
1684592010185409000,6.577408935546875,0.2632105052471161,-5.672185897827148,-0.48394837975502014
1684592010202279400,6.594279541015625,0.11425728350877762,-6.5282182693481445,-0.09690931439399719
1684592010219152600,6.611152587890625,-1.293320655822754,-7.643871784210205,0.364905446767807
1684592010236025900,6.62802587890625,-4.30169677734375,-9.101698875427246,0.3284149169921875
1684592010252899000,6.644899169921875,-7.892127513885498,-10.472786903381348,-1.0534402132034302
1684592010269772000,6.66177197265625,-8.817551612854004,-11.43529987335205,-2.9216363430023193
1684592010286645200,6.678645263671875,-7.265805721282959,-11.684152603149414,-4.576871395111084
1684592010303518500,6.6955185546875,-5.380859851837158,-10.716854095458984,-5.651846885681152
1684592010320391700,6.7123916015625,-3.751347780227661,-9.131011009216309,-5.477170944213867
1684592010337265000,6.729264892578125,-3.190829038619995,-8.765507698059082,-3.4229328632354736
1684592010354138000,6.74613818359375,-2.5525436401367188,-8.760123252868652,-0.7567301392555237
1684592010371011000,6.763010986328125,-2.506481647491455,-10.666007041931152,0.5335994362831116
1684592010387884300,6.77988427734375,-1.7868403196334839,-12.750753402709961,-0.014356935396790504
1684592010404757500,6.796757568359375,-1.2454642057418823,-14.502300262451172,0.13220344483852386
1684592010421631000,6.813630859375,-0.529412031173706,-14.736796379089355,1.2137593030929565
1684592010438493200,6.8304931640625,0.9906286001205444,-13.27238941192627,2.1786649227142334
1684592010455377200,6.847377197265625,1.1431710720062256,-10.86580753326416,1.3004990816116333
1684592010472250000,6.86425,-2.8283164501190186,-8.789435386657715,-1.843071699142456
1684592010489123300,6.881123291015625,-5.867799282073975,-7.4500532150268555,-2.4221346378326416
1684592010505993000,6.897992919921875,-3.5359935760498047,-7.1856465339660645,-2.0572292804718018
1684592010522873600,6.91487353515625,1.7066807746887207,-7.35613489151001,-1.6911274194717407
1684592010539742700,6.93174267578125,3.5084762573242188,-7.117451190948486,-1.9627127647399902
1684592010556616400,6.948616455078125,3.4002010822296143,-8.492127418518066,-2.500499725341797
1684592010573489400,6.965489501953125,2.7020950317382812,-10.363314628601074,-2.7086751461029053
1684592010590349600,6.982349609375,1.7186448574066162,-11.297114372253418,-2.609971284866333
1684592010607238100,6.999238037109375,-0.597607433795929,-10.734800338745117,-2.7870402336120605
1684592010624108800,7.01610888671875,-1.2616157531738281,-9.293723106384277,-2.8767709732055664
1684592010640982300,7.032982177734375,0.46779683232307434,-8.807381629943848,-2.6697919368743896
1684592010657855500,7.04985546875,0.7202396392822266,-8.630910873413086,-2.8175487518310547
1684592010674728700,7.066728759765625,0.38644084334373474,-8.705686569213867,-3.0622148513793945
1684592010691591000,7.0835908203125,0.46061834692955017,-9.29910659790039,-2.8283164501190186
1684592010708475000,7.100474853515625,-0.4163511395454407,-9.527023315429688,-2.4747767448425293
1684592010725347800,7.117347900390625,-0.8177471160888672,-9.31047248840332,-2.541775941848755
1684592010742221300,7.13422119140625,0.3026920557022095,-9.246464729309082,-2.7326035499572754
1684592010759094500,7.151094482421875,0.40319061279296875,-9.361320495605469,-2.8139593601226807
1684592010775967700,7.1679677734375,-0.2829512655735016,-9.416953086853027,-2.7523441314697266
1684592010792840400,7.18484033203125,-0.18364913761615753,-9.250054359436035,-2.675175666809082
1684592010809714000,7.2017138671875,0.388235479593277,-9.094520568847656,-2.569293260574341
1684592010826587100,7.218587158203125,0.7980063557624817,-9.1052885055542,-2.4400808811187744
1684592010843460400,7.23546044921875,0.8225327730178833,-9.196813583374023,-2.3300111293792725
1684592010860333600,7.25233349609375,0.7657032608985901,-9.263215065002441,-2.3300111293792725
1684592010877206800,7.269206787109375,1.0139585733413696,-9.302098274230957,-2.4017956256866455
1684592010894079500,7.28607958984375,1.323829174041748,-9.355937004089355,-2.4400808811187744
1684592010910953000,7.302952880859375,1.3908281326293945,-9.360722541809082,-2.4496521949768066
1684592010927823600,7.31982373046875,1.2616157531738281,-9.297910690307617,-2.5357937812805176
1684592010944702200,7.3367021484375,1.1856436729431152,-9.373284339904785,-2.7415764331817627
1684592010961572600,7.353572509765625,1.1527422666549683,-9.473184585571289,-2.9240293502807617
1684592010978445800,7.37044580078125,1.124626636505127,-9.497113227844238,-3.019742250442505
1684592010995319000,7.387319091796875,1.048654556274414,-9.568299293518066,-3.053241729736328
1684592011012192000,7.40419189453125,0.7621139883995056,-9.504889488220215,-3.129812002182007
1684592011029065200,7.421065185546875,0.5234299302101135,-9.42772102355957,-3.2542388439178467
1684592011045938400,7.4379384765625,0.4462614357471466,-9.326624870300293,-3.326023578643799
1684592011062812000,7.45481201171875,0.45523449778556824,-9.106484413146973,-3.349353551864624
1684592011079685000,7.47168505859375,0.38763725757598877,-8.953344345092773,-3.3780672550201416
1684592011096558300,7.488558349609375,0.46480581164360046,-9.173483848571777,-3.4743785858154297
1684592011113431000,7.50543115234375,0.45643091201782227,-9.478569030761719,-3.651447296142578
1684592011130298600,7.522298583984375,0.42831525206565857,-9.564111709594727,-3.8291144371032715
1684592011147177700,7.539177734375,0.9014959335327148,-9.723235130310059,-3.924229145050049
1684592011164050700,7.55605078125,1.2179467678070068,-10.15872859954834,-4.06839656829834
1684592011180924200,7.572924072265625,0.8009973764419556,-10.801799774169922,-4.466801643371582
1684592011197797000,7.589797119140625,-0.5557330846786499,-11.298310279846191,-4.989633560180664
1684592011214670600,7.606670654296875,-2.026122570037842,-12.317652702331543,-4.474578380584717
1684592011231543600,7.62354345703125,-1.8167506456375122,-12.255439758300781,-2.9718856811523438
1684592011248417000,7.6404169921875,-0.7393822073936462,-10.99442195892334,-2.093719720840454
1684592011265289700,7.657289794921875,-0.6424728631973267,-10.239486694335938,-1.9968105554580688
1684592011282161700,7.67416162109375,-0.45583271980285645,-10.456036567687988,-1.8490537405014038
1684592011299038000,7.691037841796875,-0.5611169338226318,-10.308279991149902,-1.5469598770141602
1684592011315909600,7.70790966796875,-0.6460621356964111,-9.530014038085938,-1.1443674564361572
1684592011332782600,7.724782470703125,-0.30927231907844543,-9.072985649108887,-0.8039883971214294
1684592011349656000,7.741656005859375,0.8410771489143372,-9.291330337524414,-0.8560323119163513
1684592011366529000,7.758529052734375,1.8610178232192993,-10.097113609313965,-1.0815558433532715
1684592011383402200,7.77540234375,1.984248161315918,-11.038688659667969,-1.2741780281066895
1684592011400275700,7.792275634765625,1.2837493419647217,-11.178668975830078,-1.633699655532837
1684592011417148700,7.809148681640625,-0.5174478888511658,-10.435099601745605,-2.3228325843811035
1684592011434021600,7.826021728515625,-1.9992033243179321,-9.641280174255371,-2.538186550140381
1684592011450894800,7.842894775390625,-2.2025933265686035,-8.996415138244629,-2.0919251441955566
1684592011467768000,7.85976806640625,-1.7575281858444214,-8.315656661987305,-1.6031911373138428
1684592011484641000,7.87664111328125,-1.516451358795166,-7.758129119873047,-1.3148560523986816
1684592011501514500,7.893514404296875,-1.76051926612854,-7.6043901443481445,-1.171286702156067
1684592011518388000,7.910387939453125,-2.259422779083252,-8.101499557495117,-0.7651050686836243
1684592011535261000,7.927260986328125,-2.5334010124206543,-8.805587768554688,0.08554340898990631
1684592011552134100,7.944134033203125,-2.5842485427856445,-9.192625999450684,0.28115665912628174
1684592011569007400,7.96100732421875,-2.6847469806671143,-9.052047729492188,-0.4175475537776947
1684592011585877500,7.97787744140625,-2.9001009464263916,-8.809774398803711,-1.5032907724380493
1684592011602756400,7.99475634765625,-2.6763720512390137,-8.664410591125488,-2.3264217376708984
1684592011619627000,8.011626953125,-2.0093727111816406,-8.421539306640625,-2.7804598808288574
1684592011636500000,8.0285,-1.353141188621521,-7.960322856903076,-2.765504837036133
1684592011653373200,8.045373291015625,-1.0151549577713013,-7.722835063934326,-2.6356940269470215
1684592011670236200,8.062236083984375,-1.2634103298187256,-7.707880020141602,-2.4681966304779053
1684592011687119400,8.079119384765624,-1.7150555849075317,-8.094321250915527,-2.2821545600891113
1684592011703992800,8.095992919921875,-2.5812573432922363,-8.507680892944336,-2.0967109203338623
1684592011720866000,8.112865966796875,-3.2482566833496094,-8.793025016784668,-1.867598056793213
1684592011737739300,8.1297392578125,-3.686143398284912,-8.998209953308105,-1.4656038284301758
1684592011754612500,8.146612548828125,-3.5676984786987305,-8.908478736877441,-1.144965648651123
1684592011771485400,8.1634853515625,-3.1441688537597656,-8.685347557067871,-1.1443674564361572
1684592011788358700,8.180358642578126,-2.8253252506256104,-8.484949111938477,-1.4745769500732422
1684592011805231900,8.19723193359375,-2.499901533126831,-8.589634895324707,-1.9004993438720703
1684592011822094600,8.214094482421874,-2.593221426010132,-9.056833267211914,-2.3365912437438965
1684592011838978300,8.230978271484375,-3.1202406883239746,-9.641879081726074,-2.7876384258270264
1684592011855851500,8.2478515625,-3.690330743789673,-10.179067611694336,-3.1519455909729004
1684592011872724500,8.264724365234375,-3.951148271560669,-10.550553321838379,-3.348755359649658
1684592011889598000,8.281597900390626,-3.5371899604797363,-11.422139167785645,-3.2919256687164307
1684592011906471200,8.29847119140625,-2.7260231971740723,-12.687942504882812,-2.905484914779663
1684592011923344000,8.31534375,-2.2295124530792236,-11.774481773376465,-1.7461622953414917
1684592011940217300,8.33221728515625,-1.5846468210220337,-9.800403594970703,-0.7525427341461182
1684592011957090600,8.349090576171875,-0.981655478477478,-9.075976371765137,-0.5934200286865234
1684592011973961000,8.3659609375,-0.592223584651947,-8.71346378326416,-0.8656035661697388
1684592011990839600,8.382839599609374,-0.747757077217102,-9.05563735961914,-1.2921242713928223
1684592012007710200,8.399710205078126,-1.4321043491363525,-9.698708534240723,-1.451246976852417
1684592012024583400,8.41658349609375,-1.1730812788009644,-8.892327308654785,-1.2394821643829346
1684592012041456600,8.43345654296875,-0.2829512655735016,-8.475378036499023,-0.9224331378936768
1684592012058329900,8.450329833984375,-0.02392822690308094,-8.868997573852539,-0.6167500615119934
1684592012075202800,8.467202880859375,-0.8835497498512268,-9.754940032958984,-0.7184450030326843
1684592012092076000,8.484075927734375,-2.1960129737854004,-10.700104713439941,-1.472184181213379
1684592012108949200,8.50094921875,-2.3437697887420654,-10.518848419189453,-2.9413771629333496
1684592012125820400,8.5178203125,-1.1383854150772095,-10.196415901184082,-3.380460262298584
1684592012142700800,8.53470068359375,-0.3439682424068451,-9.659825325012207,-3.0107691287994385
1684592012159565800,8.55156591796875,-0.4749752879142761,-9.158528327941895,-2.4837498664855957
1684592012176441600,8.568441650390625,-0.5760720372200012,-8.97787094116211,-2.148754835128784
1684592012193310200,8.585310302734374,-0.1740778535604477,-9.280562400817871,-1.8999011516571045
1684592012210188300,8.602188232421875,0.33738797903060913,-9.602995872497559,-1.8185452222824097
1684592012227061800,8.619061767578126,0.4612165689468384,-9.607781410217285,-1.8855443000793457
1684592012243934700,8.635934814453124,0.4707878530025482,-9.56471061706543,-1.9142581224441528
1684592012260808000,8.652807861328125,0.7471588850021362,-9.479764938354492,-1.9525432586669922
1684592012277681000,8.669680908203125,1.0037890672683716,-9.293723106384277,-2.0859432220458984
1684592012294554400,8.686554443359375,1.1653046607971191,-9.08853816986084,-2.1672990322113037
1684592012311427600,8.703427490234375,1.1509476900100708,-9.116654396057129,-2.3300111293792725
1684592012328300800,8.72030078125,1.0995019674301147,-9.215956687927246,-2.5645077228546143
1684592012345174000,8.737174072265624,0.9475577473640442,-9.477970123291016,-2.713460922241211
1684592012362047200,8.754047119140624,0.7292127013206482,-9.744770050048828,-2.8666014671325684
1684592012378920200,8.770920166015625,0.4731806814670563,-10.078569412231445,-2.857628345489502
1684592012395793400,8.78779345703125,0.268594354391098,-10.259825706481934,-2.7385854721069336
1684592012412666600,8.80466650390625,0.06759724020957947,-10.043872833251953,-2.709871530532837
1684592012429539800,8.821539794921875,0.10468599200248718,-9.724431037902832,-2.637488842010498
1684592012446413000,8.8384130859375,0.35114672780036926,-9.352347373962402,-2.56510591506958
1684592012463286300,8.855286376953124,0.6263213157653809,-8.999405860900879,-2.531008243560791
1684592012480159500,8.872159423828125,0.6825526356697083,-8.813364028930664,-2.4783661365509033
1684592012497032700,8.88903271484375,0.6107679605484009,-8.789435386657715,-2.435295343399048
1684592012513905700,8.90590576171875,0.6263213157653809,-9.05264663696289,-2.406581401824951
1684592012530779000,8.92277880859375,0.5461617708206177,-9.291330337524414,-2.3880369663238525
1684592012547652000,8.939652099609376,0.355932354927063,-9.391230583190918,-2.2683959007263184
1684592012564525300,8.956525390625,0.1746760457754135,-9.396016120910645,-2.1583259105682373
1684592012581398500,8.9733984375,0.07417750358581543,-9.352945327758789,-2.053041934967041
1684592012598271700,8.990271728515625,0.12143574655056,-9.262616157531738,-1.923829436302185
1684592012615144700,9.007144775390625,0.2835494875907898,-9.287142753601074,-1.923829436302185
1684592012632018000,9.024017822265625,0.21176479756832123,-9.242876052856445,-2.196611166000366
1684592012648891100,9.04089111328125,0.13160525262355804,-9.360722541809082,-2.6225335597991943
1684592012665764400,9.057764404296876,0.33738797903060913,-9.556933403015137,-2.991028308868408
1684592012682637800,9.074637939453124,0.605384111404419,-9.671191215515137,-3.263810157775879
1684592012699511000,9.091510986328124,0.3852444589138031,-9.531808853149414,-3.431307554244995
1684592012716383700,9.1083837890625,0.03170489892363548,-9.300901412963867,-3.5222349166870117
1684592012733257200,9.12525732421875,0.11246266216039658,-9.268000602722168,-3.507878065109253
1684592012750131200,9.142131103515625,0.355932354927063,-9.282955169677734,-3.5509488582611084
1684592012767003600,9.159003662109376,0.18903298676013947,-9.320642471313477,-3.5605201721191406
1684592012783876900,9.175876953125,-0.18305093050003052,-9.290133476257324,-3.7334015369415283
1684592012800750000,9.19275,-0.29312077164649963,-9.274580955505371,-3.9870407581329346
1684592012817623000,9.209623046875,-0.16031911969184875,-8.959325790405273,-4.096512317657471
1684592012834496500,9.22649658203125,0.3439682424068451,-8.755936622619629,-3.909274101257324
1684592012851369500,9.243369384765625,0.8566305041313171,-9.215956687927246,-4.211368083953857
1684592012868232000,9.26023193359375,1.2939188480377197,-10.025328636169434,-4.140181541442871
1684592012885115600,9.27711572265625,2.0554347038269043,-10.7826566696167,-4.231706619262695
1684592012901989000,9.293989013671874,1.164108157157898,-11.95334529876709,-5.023132801055908
1684592012918862300,9.3108623046875,-0.6101697683334351,-13.116257667541504,-6.059225082397461
1684592012935735600,9.327735595703125,-0.4863412082195282,-14.1194486618042,-6.390631198883057
1684592012952608500,9.3446083984375,0.2027917206287384,-13.652848243713379,-4.767100811004639
1684592012969481500,9.3614814453125,-1.2681959867477417,-11.251649856567383,-1.9268203973770142
1684592012986355000,9.37835498046875,-1.0977073907852173,-8.784649848937988,-0.3397808074951172
1684592013003228200,9.395228271484376,-1.5242279767990112,-8.214560508728027,-0.3008974492549896
1684592013020101600,9.4121015625,-2.0105693340301514,-8.283951759338379,-0.7752745151519775
1684592013036974600,9.428974609375,-0.6945167779922485,-8.11406135559082,-1.4105689525604248
1684592013053847600,9.44584765625,1.0456634759902954,-7.8113694190979,-2.227717876434326
1684592013070721000,9.462720947265625,1.7958134412765503,-8.09970474243164,-2.581855535507202
1684592013087594200,9.47959423828125,1.8610178232192993,-8.815756797790527,-2.9802606105804443
1684592013104467200,9.49646728515625,1.4799607992172241,-10.166504859924316,-3.250051259994507
1684592013121340700,9.513340576171874,-0.6891329288482666,-11.58843994140625,-3.5443685054779053
1684592013138214000,9.5302138671875,-4.261018753051758,-11.753544807434082,-3.7812578678131104
1684592013155086800,9.5470869140625,-3.0975089073181152,-10.51107120513916,-3.0418758392333984
1684592013171960000,9.5639599609375,-0.6891329288482666,-9.377471923828125,-2.565704107284546
1684592013188833500,9.58083349609375,-0.2638086974620819,-8.423932075500488,-2.1577277183532715
1684592013205706200,9.597706298828125,-0.6813562512397766,-7.859824180603027,-1.6737794876098633
1684592013222579700,9.614579833984376,-1.439282774925232,-7.905886173248291,-1.439282774925232
1684592013239453000,9.631452880859374,-1.843071699142456,-8.34018325805664,-1.2681959867477417
1684592013256326100,9.648326171875,-1.555932879447937,-8.5764741897583,-0.9236295223236084
1684592013273199000,9.66519921875,-1.3663017749786377,-8.382058143615723,-0.44446679949760437
1684592013290066400,9.68206640625,-1.5194423198699951,-8.25404167175293,0.03409772366285324
1684592013306933000,9.69893310546875,-2.344966173171997,-8.290532112121582,0.4307080805301666
1684592013323814700,9.715814697265625,-3.173480987548828,-8.575278282165527,0.7028916478157043
1684592013340692000,9.73269189453125,-3.3535408973693848,-8.861818313598633,0.6927221417427063
1684592013357565200,9.749565185546874,-2.9688947200775146,-8.493324279785156,0.01375873014330864
1684592013374438400,9.7664384765625,-2.5938198566436768,-7.980661869049072,-0.8033902049064636
1684592013391311400,9.783311279296875,-2.2887349128723145,-7.827520847320557,-1.1766705513000488
1684592013408184600,9.8001845703125,-2.3509483337402344,-7.850851058959961,-1.2532408237457275
1684592013425058000,9.81705810546875,-2.4747767448425293,-7.874779224395752,-1.2436695098876953
1684592013441931300,9.83393115234375,-2.6225335597991943,-7.907680511474609,-1.3010972738265991
1684592013458804200,9.85080419921875,-2.7696921825408936,-8.002197265625,-1.5026925802230835
1684592013475677200,9.86767724609375,-3.087937593460083,-8.34018325805664,-1.6660027503967285
1684592013492550700,9.884550537109375,-3.586242914199829,-8.935996055603027,-1.7431713342666626
1684592013509423900,9.901423828125,-4.427918434143066,-9.644869804382324,-1.8592232465744019
1684592013526296000,9.918296142578125,-5.394618511199951,-9.9469633102417,-2.181057929992676
1684592013543171000,9.935171142578126,-5.609374523162842,-9.92124080657959,-2.616551637649536
1684592013560049400,9.95204931640625,-4.840680122375488,-10.01456069946289,-2.6500511169433594
1684592013576916700,9.968916748046874,-4.415954113006592,-10.099506378173828,-1.7545372247695923
1684592013593789700,9.985789794921875,-4.06540584564209,-9.625128746032715,-0.8159525394439697
1684592013610663000,10.002662841796875,-3.4713873863220215,-9.18425178527832,-0.03469592705368996
1684592013627536100,10.0195361328125,-2.754138946533203,-8.479565620422363,0.15254244208335876
1684592013644409600,10.03640966796875,-2.2893331050872803,-8.991629600524902,-0.29730820655822754
1684592013661282300,10.0532822265625,-2.287538528442383,-11.564512252807617,-1.6977076530456543
1684592013678155800,10.07015576171875,-2.554338216781616,-13.859827041625977,-2.7152554988861084
1684592013695029000,10.087029052734374,-1.820937991142273,-14.70927906036377,-2.3808584213256836
1684592013711902200,10.103902099609375,-0.20578274130821228,-13.171890258789062,-1.703689694404602
1684592013728775400,10.120775390625,-0.3768695592880249,-11.116456031799316,-1.5912270545959473
1684592013745648400,10.1376484375,-2.032104730606079,-9.833903312683105,-2.073979139328003
1684592013762521300,10.154521240234375,-3.66520619392395,-8.305487632751465,-1.5032907724380493
1684592013779395000,10.17139501953125,-5.2354960441589355,-7.098906517028809,-0.25363919138908386
1684592013796265500,10.188265380859375,-2.8486554622650146,-7.527820110321045,-0.0568295381963253
1684592013813143800,10.205143798828125,1.9950158596038818,-7.88913631439209,-1.0785647630691528
1684592013830014700,10.2220146484375,3.751945972442627,-8.333602905273438,-1.4518451690673828
1684592013846887700,10.2388876953125,3.5126636028289795,-9.240483283996582,-1.6444673538208008
1684592013863760600,10.2557607421875,2.4323041439056396,-9.834501266479492,-1.693520188331604
1684592013880634000,10.272634033203126,1.6689938306808472,-9.822537422180176,-1.7084753513336182
1684592013897507000,10.289507080078126,1.4482558965682983,-9.491130828857422,-1.8849459886550903
1684592013914380300,10.30638037109375,1.4051851034164429,-9.33739185333252,-2.1960129737854004
1684592013931253500,10.32325341796875,1.2191431522369385,-9.374481201171875,-2.42093825340271
1684592013948126700,10.340126708984375,0.5228317379951477,-9.386445045471191,-2.5459632873535156
1684592013965000000,10.357,-0.6119644045829773,-9.544371604919434,-2.8145575523376465
1684592013981873200,10.373873046875,-0.44805604219436646,-9.835697174072266,-3.1549365520477295
1684592013998746000,10.39074609375,0.1902294009923935,-9.597611427307129,-3.5467612743377686
1684592014015619600,10.40761962890625,-0.5796613097190857,-9.125627517700195,-3.96789813041687
1684592014032492500,10.424492431640624,-0.5120640397071838,-9.264410972595215,-4.034897327423096
1684592014049365800,10.44136572265625,0.28953152894973755,-9.4061861038208,-3.8333017826080322
1684592014066236400,10.458236328125,-0.43968117237091064,-9.56650447845459,-3.6424741744995117
1684592014083114800,10.47511474609375,-0.9505487680435181,-9.45583724975586,-3.40797758102417
1684592014099985200,10.491985107421876,-0.031106693670153618,-9.148957252502441,-3.1441688537597656
1684592014116858600,10.508858642578126,0.9499505758285522,-8.903693199157715,-2.923431158065796
1684592014133731800,10.52573193359375,1.2741780281066895,-8.814560890197754,-2.7696921825408936
1684592014150604800,10.542604736328125,1.0067801475524902,-8.69910717010498,-2.764906644821167
1684592014167478300,10.559478271484375,0.47676992416381836,-8.644071578979492,-2.9036903381347656
1684592014184351200,10.576351318359375,0.44386860728263855,-8.767900466918945,-3.0765717029571533
1684592014201224400,10.593224365234375,1.074975609779358,-9.08973503112793,-3.2344980239868164
1684592014218098000,10.610097900390626,1.4243277311325073,-9.300901412963867,-3.3780672550201416
1684592014234971100,10.62697119140625,1.1617153882980347,-9.290133476257324,-3.593421459197998
1684592014251839700,10.64383984375,0.6131607890129089,-9.177671432495117,-3.809373617172241
1684592014268717300,10.66071728515625,0.3170489966869354,-9.124430656433105,-3.713660717010498
1684592014285590500,10.677590576171875,0.5790630578994751,-9.08255672454834,-3.57906436920166
1684592014302463700,10.694463623046875,0.6975077986717224,-8.93958568572998,-3.5359935760498047
1684592014319337000,10.7113369140625,0.4588237404823303,-8.843274116516113,-3.521636724472046
1684592014336210200,10.728210205078126,0.14476576447486877,-8.976076126098633,-3.6610186100006104
1684592014353083000,10.745082763671874,-0.05922235921025276,-9.299705505371094,-3.814159393310547
1684592014369956400,10.761956298828125,0.061016976833343506,-9.491728782653809,-3.8291144371032715
1684592014386829600,10.77882958984375,0.20338992774486542,-9.329615592956543,-3.7663028240203857
1684592014403702800,10.795702880859375,0.08255238085985184,-9.023334503173828,-3.78544545173645
1684592014420576000,10.812575927734375,0.015553346835076809,-8.893523216247559,-3.82373046875
1684592014437449200,10.82944921875,0.22013968229293823,-8.803194046020508,-3.9762730598449707
1684592014454322000,10.846322021484376,0.5162515044212341,-8.770293235778809,-4.110270977020264
1684592014471195400,10.8631953125,0.6496513485908508,-8.804390907287598,-4.129413604736328
1684592014488066600,10.880066650390624,0.6927221417427063,-8.794819831848145,-4.215555191040039
1684592014504943900,10.89694384765625,0.34576287865638733,-9.132805824279785,-4.249652862548828
1684592014521815000,10.91381494140625,0.09870393574237823,-9.371489524841309,-4.149752616882324
1684592014538688300,10.930688232421875,0.7674978375434875,-9.6466646194458,-3.814159393310547
1684592014555561500,10.9475615234375,1.454237937927246,-10.751550674438477,-4.25084924697876
1684592014572434400,10.964434326171874,1.4985052347183228,-12.150753021240234,-4.922634601593018
1684592014589308000,10.981307861328125,1.5355939865112305,-12.966706275939941,-5.4071807861328125
1684592014606178300,10.99817822265625,0.9122636318206787,-13.312468528747559,-5.958128452301025
1684592014623056600,11.015056640625,-1.2388839721679688,-12.199806213378906,-6.51326322555542
1684592014639927600,11.031927490234375,-1.0205388069152832,-10.963912963867188,-4.257429599761963
1684592014656800800,11.04880078125,0.05623133108019829,-9.711869239807129,-1.8287147283554077
1684592014673673700,11.065673828125,-0.4701896607875824,-8.242077827453613,-0.28594231605529785
1684592014690536200,11.0825361328125,-1.9579271078109741,-8.328817367553711,-0.0568295381963253
1684592014707420200,11.099420166015625,-2.186441659927368,-8.441878318786621,-0.3158525824546814
1684592014724293000,11.116293212890625,-0.5216353535652161,-8.493922233581543,-0.7124629616737366
1684592014741166600,11.13316650390625,0.9930213689804077,-9.019744873046875,-0.8554341197013855
1684592014758039800,11.150039794921875,1.7228323221206665,-10.206584930419922,-1.057627558708191
1684592014774912800,11.166912841796876,1.6947166919708252,-11.390434265136719,-1.6480566263198853
1684592014791785700,11.18378564453125,1.4075778722763062,-12.348759651184082,-2.1373889446258545
1684592014808659200,11.2006591796875,1.01814603805542,-12.739387512207031,-2.2719850540161133
1684592014825532200,11.2175322265625,-2.641077995300293,-11.337791442871094,-3.66520619392395
1684592014842405600,11.234405517578125,-1.4979069232940674,-9.823135375976562,-3.1651060581207275
1684592014859278800,11.25127880859375,-0.6813562512397766,-8.920442581176758,-1.8903298377990723
1684592014876152000,11.268152099609376,-1.058824062347412,-7.645068168640137,-1.2717852592468262
1684592014893025000,11.28502490234375,-1.0636097192764282,-6.579065799713135,-1.174277663230896
1684592014909898500,11.3018984375,-1.1413763761520386,-6.153143405914307,-1.2460623979568481
1684592014926771500,11.318771484375,-1.506281852722168,-6.706483840942383,-1.3663017749786377
1684592014943644700,11.335644775390625,-1.5493526458740234,-7.868797302246094,-1.0660024881362915
1684592014960518000,11.352517822265625,-1.3800604343414307,-8.583054542541504,-0.32542386651039124
1684592014977391000,11.36939111328125,-1.9028922319412231,-8.998209953308105,0.028115665540099144
1684592014994264000,11.38626416015625,-3.084348440170288,-9.309874534606934,-0.07776673883199692
1684592015011137300,11.40313720703125,-4.249054908752441,-9.117850303649902,-0.844068169593811
1684592015028010500,11.420010498046874,-4.264009952545166,-8.843274116516113,-1.5427724123001099
1684592015044875000,11.436875,-3.3302109241485596,-8.59202766418457,-1.9100706577301025
1684592015061757000,11.4537568359375,-2.2671995162963867,-8.3898344039917,-1.9860427379608154
1684592015078630100,11.470630126953125,-1.714457392692566,-8.349156379699707,-1.7611174583435059
1684592015095503400,11.48750341796875,-1.537388563156128,-8.436494827270508,-1.3920245170593262
1684592015112376300,11.504376220703126,-1.6552350521087646,-8.767302513122559,-0.97148597240448
1684592015129249800,11.521249755859374,-2.2642083168029785,-9.224929809570312,-0.5754738450050354
1684592015146120000,11.538119873046876,-3.3176486492156982,-9.398408889770508,-0.5521438121795654
1684592015162998800,11.554998779296875,-4.167100429534912,-9.285347938537598,-0.9206385016441345
1684592015179869200,11.571869140625,-4.391427993774414,-9.163912773132324,-1.303490161895752
1684592015196742400,11.588742431640625,-3.8709888458251953,-9.385248184204102,-1.4327025413513184
1684592015213615600,11.60561572265625,-3.355933666229248,-9.358329772949219,-1.3465609550476074
1684592015230478300,11.622478271484376,-3.0275187492370605,-9.178269386291504,-1.058824062347412
1684592015247362000,11.639362060546874,-3.032304525375366,-9.150752067565918,-0.5659025311470032
1684592015264235000,11.656235107421875,-3.0233314037323,-9.10409164428711,-0.2069791555404663
1684592015281108500,11.6731083984375,-2.8139593601226807,-9.05264663696289,-0.08733802288770676
1684592015297981400,11.6899814453125,-2.503490686416626,-9.04845905303955,-0.16809579730033875
1684592015314854700,11.706854736328125,-2.4699912071228027,-9.057432174682617,-0.5413761138916016
1684592015331728000,11.723727783203126,-2.7762725353240967,-9.865608215332031,-1.7916259765625
1684592015348601000,11.74060107421875,-2.8007988929748535,-11.863615036010742,-3.5605201721191406
1684592015365474300,11.757474365234375,-2.6075785160064697,-12.32542896270752,-4.446462631225586
1684592015382340400,11.77434033203125,-1.7383856773376465,-11.512468338012695,-3.755535125732422
1684592015399220700,11.791220703125,-0.0568295381963253,-11.152946472167969,-2.5148565769195557
1684592015416093700,11.80809375,0.16689938306808472,-10.98305606842041,-1.9782661199569702
1684592015432967000,11.824966796875,-3.0478577613830566,-11.095519065856934,-2.592623233795166
1684592015449840400,11.84184033203125,-3.2093734741210938,-11.293524742126465,-1.7748762369155884
1684592015466713300,11.85871337890625,-5.183452129364014,-9.381061553955078,0.3326023519039154
1684592015483586300,11.87558642578125,-4.219742774963379,-8.200202941894531,1.114457130432129
1684592015500459800,11.892459716796875,-0.7549355626106262,-7.53559684753418,0.39900317788124084
1684592015517333000,11.9093330078125,1.4817553758621216,-7.332206726074219,0.30927231907844543
1684592015534206200,11.926206298828125,3.084946632385254,-8.675776481628418,0.34695929288864136
1684592015551079000,11.943078857421876,3.66520619392395,-10.459626197814941,-0.008973085321485996
1684592015567952400,11.959952392578124,2.9659037590026855,-10.942975997924805,-0.7232306599617004
1684592015584825300,11.976825439453124,2.251646041870117,-9.924830436706543,-1.6360924243927002
1684592015601698800,11.99369873046875,0.6095715761184692,-8.50708293914795,-2.496910333633423
1684592015618572000,12.010572021484375,0.9463613629341125,-8.015357971191406,-2.692523717880249
1684592015635445200,12.0274453125,1.4434702396392822,-8.174480438232422,-2.826521635055542
1684592015652318200,12.044318115234375,1.0354939699172974,-8.69791030883789,-3.1334011554718018
1684592015669191400,12.06119140625,0.08434699475765228,-9.391828536987305,-3.617947816848755
1684592015686062800,12.078062744140626,-0.7124629616737366,-10.545767784118652,-3.710669755935669
1684592015702939400,12.094939453125,-0.2799602448940277,-11.37069320678711,-3.0562326908111572
1684592015719811000,12.11181103515625,-0.36311084032058716,-10.903494834899902,-2.5435705184936523
1684592015736670500,12.12867041015625,-0.7429714202880859,-10.180862426757812,-2.41375994682312
1684592015753557500,12.1455576171875,-0.7381857633590698,-10.104291915893555,-2.585444927215576
1684592015770420000,12.162419921875,-0.22612173855304718,-10.482955932617188,-2.743969440460205
1684592015787303700,12.1793037109375,0.32183465361595154,-10.356136322021484,-2.5232315063476562
1684592015804177000,12.196177001953124,0.6376872062683105,-9.511469841003418,-2.297109842300415
1684592015821050000,12.213050048828125,1.2658032178878784,-9.21296501159668,-2.152942180633545
1684592015837922800,12.2299228515625,1.7437695264816284,-9.386445045471191,-2.129014015197754
1684592015854796500,12.246796630859375,1.649253010749817,-9.577272415161133,-2.2773690223693848
1684592015871669500,12.26366943359375,1.2496516704559326,-9.775876998901367,-2.4598217010498047
1684592015888542700,12.280542724609376,1.054038405418396,-9.837491989135742,-2.445464849472046
1684592015905416000,12.297416015625,1.1635099649429321,-9.752547264099121,-2.2923240661621094
1684592015922289400,12.314289306640624,1.0049854516983032,-9.546764373779297,-2.0578274726867676
1684592015939162400,12.331162353515625,0.5312066078186035,-9.215956687927246,-1.8323038816452026
1684592015956035600,12.34803564453125,-0.05024927482008934,-9.248259544372559,-1.7419748306274414
1684592015972908500,12.364908447265625,-0.5078766345977783,-9.312865257263184,-2.0003998279571533
1684592015989782000,12.381781982421876,-0.1986042857170105,-9.092127799987793,-2.7517459392547607
1684592016006655200,12.3986552734375,0.29312077164649963,-9.215956687927246,-3.345165967941284
1684592016023528200,12.415528076171874,0.494716078042984,-9.503094673156738,-3.4408788681030273
1684592016040401400,12.4324013671875,-0.6765705943107605,-8.768498420715332,-3.4552359580993652
1684592016057274600,12.449274658203125,-2.0093727111816406,-8.295317649841309,-3.493520975112915
1684592016074147600,12.466147705078125,-0.2386840581893921,-8.583054542541504,-3.4402806758880615
1684592016091021000,12.48302099609375,1.1892328262329102,-8.96112060546875,-3.1962127685546875
1684592016107894300,12.499894287109376,1.4249259233474731,-9.440881729125977,-2.9377880096435547
1684592016124767200,12.516767333984374,1.0636097192764282,-9.894919395446777,-2.4981069564819336
1684592016141640400,12.533640380859374,0.6394818425178528,-9.899106979370117,-2.0823538303375244
1684592016158513700,12.550513671875,-0.001794616924598813,-9.568299293518066,-1.7132610082626343
1684592016175386600,12.56738671875,-0.32662028074264526,-9.401400566101074,-1.3591232299804688
1684592016192260000,12.584260009765625,-0.06340979784727097,-9.589237213134766,-0.9667003750801086
1684592016209133000,12.601133056640625,0.2709871530532837,-9.849455833435059,-0.7423732280731201
1684592016226005500,12.618005615234376,0.3433700501918793,-9.992427825927734,-0.7902296781539917
1684592016242880500,12.634880615234374,-0.1860419660806656,-10.013962745666504,-1.1826525926589966
1684592016259753000,12.6517529296875,-0.6622136831283569,-10.168299674987793,-1.8915263414382935
1684592016276625700,12.668625732421875,-0.6849454641342163,-10.295717239379883,-2.4329023361206055
1684592016293499000,12.685498779296875,-0.3481557071208954,-9.869794845581055,-2.93001127243042
1684592016310361600,12.702361572265625,0.15194423496723175,-9.655637741088867,-3.178266763687134
1684592016327245300,12.719245361328126,0.4905286431312561,-9.551549911499023,-3.2542388439178467
1684592016344118500,12.736118408203126,0.6035895347595215,-9.33739185333252,-3.1489546298980713
1684592016360991700,12.75299169921875,0.7698906660079956,-9.156734466552734,-2.885145902633667
1684592016377865000,12.769864990234375,1.00259268283844,-8.986245155334473,-2.6554348468780518
1684592016394738200,12.78673828125,1.2646067142486572,-8.867202758789062,-2.6117658615112305
1684592016411611400,12.803611328125,1.4273186922073364,-8.920442581176758,-2.6356940269470215
1684592016428474000,12.82047412109375,1.5804593563079834,-9.126225471496582,-2.827120065689087
1684592016445357600,12.837357666015626,1.5481562614440918,-9.283554077148438,-2.899502754211426
1684592016462230800,12.854230712890624,1.2472587823867798,-9.282357215881348,-2.894717216491699
1684592016479104000,12.87110400390625,0.7184450030326843,-9.337990760803223,-2.8522446155548096
1684592016495966200,12.88796630859375,0.3038884699344635,-9.542576789855957,-2.9288148880004883
1684592016512846600,12.9048466796875,0.12382857501506805,-9.827920913696289,-3.0825538635253906
1684592016529723100,12.92172314453125,0.1052841991186142,-9.937392234802246,-3.2404799461364746
1684592016546596600,12.9385966796875,-0.22372891008853912,-9.845269203186035,-3.480360507965088
1684592016563469800,12.9554697265625,-0.615553617477417,-9.675976753234863,-3.6957144737243652
1684592016580343000,12.972343017578124,-0.2111666053533554,-9.476176261901855,-3.848257064819336
1684592016597216300,12.98921630859375,0.6711867451667786,-9.426525115966797,-3.799802303314209
1684592016614089200,13.006089111328125,1.200000524520874,-9.223134994506836,-3.6364922523498535
1684592016630962400,13.02296240234375,1.3848460912704468,-9.018548965454102,-3.531208038330078
1684592016647835600,13.039835693359375,1.3752747774124146,-9.018548965454102,-3.4540395736694336
1684592016664707000,13.05670703125,1.2891331911087036,-8.975478172302246,-3.4067811965942383
1684592016681584000,13.073584228515625,1.1982059478759766,-8.903693199157715,-3.315255880355835
1684592016698455300,13.090455322265624,1.1318050622940063,-8.908478736877441,-3.191427230834961
1684592016715328500,13.10732861328125,1.0456634759902954,-8.918049812316895,-3.10528564453125
1684592016732201500,13.124201416015625,1.0893324613571167,-9.013762474060059,-3.1148569583892822
1684592016749075000,13.141074951171875,1.1132607460021973,-9.104690551757812,-3.129213809967041
1684592016765948000,13.157947998046875,1.1419745683670044,-9.104690551757812,-3.0765717029571533
1684592016782821000,13.174821044921876,1.160519003868103,-9.062217712402344,-3.0526435375213623
1684592016799694300,13.1916943359375,1.1042876243591309,-9.186046600341797,-3.0957143306732178
1684592016816567600,13.208567626953124,0.7184450030326843,-9.318249702453613,-3.10109806060791
1684592016833440500,13.2254404296875,0.4701896607875824,-9.312865257263184,-3.10109806060791
1684592016850305300,13.24230517578125,0.16869398951530457,-9.116056442260742,-3.1202406883239746
1684592016867186700,13.259186767578125,-0.32303106784820557,-8.927022933959961,-3.460021495819092
1684592016884060200,13.27606005859375,-0.633499801158905,-8.742775917053223,-4.048655986785889
1684592016900933400,13.292933349609376,-0.4426721930503845,-8.742177963256836,-4.445864677429199
1684592016917804000,13.309803955078126,0.05383851006627083,-8.820542335510254,-4.521836757659912
1684592016934682000,13.32668212890625,0.7950153350830078,-9.268000602722168,-4.3070807456970215
1684592016951552800,13.343552734375,1.0408778190612793,-10.077970504760742,-3.628117322921753
1684592016968425700,13.36042578125,0.9678967595100403,-10.887343406677246,-2.963510751724243
1684592016985299200,13.37729931640625,0.5389832854270935,-11.035099983215332,-2.7631118297576904
1684592017002172400,13.39417236328125,0.29790642857551575,-11.444870948791504,-2.8211379051208496
1684592017019045400,13.41104541015625,0.32542386651039124,-12.382259368896484,-2.7840490341186523
1684592017035918800,13.4279189453125,-0.7010970115661621,-13.389636993408203,-1.9818553924560547
1684592017052791800,13.444791748046875,-2.251646041870117,-13.407583236694336,-0.6185446381568909
1684592017069665300,13.461665283203125,-3.005983352661133,-12.20339584350586,0.5551348328590393
1684592017086538200,13.478538330078125,-2.8516464233398438,-10.36929702758789,0.7968099117279053
1684592017103411200,13.4954111328125,-2.8701908588409424,-9.221938133239746,-0.9391828775405884
1684592017120273700,13.512273681640625,-2.9521448612213135,-8.854640007019043,-2.451446771621704
1684592017137158000,13.529157958984374,-2.263011932373047,-8.243273735046387,-3.067598581314087
1684592017154030800,13.54603076171875,-1.207179069519043,-7.346563816070557,-3.5204403400421143
1684592017170903800,13.56290380859375,-0.802193820476532,-7.218547821044922,-3.683152198791504
1684592017187777000,13.579777099609375,-0.4701896607875824,-8.076972961425781,-3.1142587661743164
1684592017204650200,13.596650146484375,0.039481572806835175,-9.020941734313965,-2.699103832244873
1684592017221523200,13.613523193359375,-1.0253244638442993,-9.80518913269043,-3.0687949657440186
1684592017238396700,13.630396728515626,-1.9106688499450684,-10.331609725952148,-3.7399818897247314
1684592017255270000,13.647269775390624,-1.882553219795227,-10.189236640930176,-3.4241292476654053
1684592017272143000,13.66414306640625,-1.5176477432250977,-9.69511890411377,-2.5423741340637207
1684592017289016300,13.681016357421875,-0.9134600162506104,-9.330811500549316,-1.862214207649231
1684592017305886700,13.69788671875,-0.4139583110809326,-9.113663673400879,-1.5601203441619873
1684592017322764800,13.714764892578126,-0.47676992416381836,-8.807381629943848,-1.516451358795166
1684592017339635700,13.7316357421875,-1.0211371183395386,-8.700303077697754,-1.6414763927459717
1684592017356508200,13.748508056640626,-1.2251251935958862,-8.928817749023438,-1.6558332443237305
1684592017373383000,13.7653828125,-1.495514154434204,-9.287142753601074,-1.5415760278701782
1684592017390261500,13.782261474609374,-2.0440688133239746,-9.391230583190918,-1.144965648651123
1684592017407128300,13.79912841796875,-2.255235433578491,-9.182456970214844,-0.34995031356811523
1684592017424001500,13.81600146484375,-1.9423737525939941,-8.684151649475098,0.4737788736820221
1684592017440874800,13.832874755859375,-1.4584254026412964,-8.194819450378418,1.067797064781189
1684592017457748000,13.849748046875,-0.8321040868759155,-7.3746795654296875,1.2179467678070068
1684592017474621200,13.86662109375,-0.5485545992851257,-6.763313293457031,0.9553344249725342
1684592017491494100,13.883494140625,-0.9631111025810242,-6.726224422454834,0.22791635990142822
1684592017508367400,13.900367431640625,-1.9627127647399902,-7.131807804107666,-0.7543373107910156
1684592017525240300,13.917240234375,-2.826521635055542,-8.193024635314941,-1.4835500717163086
1684592017542113800,13.93411376953125,-3.809373617172241,-9.216554641723633,-1.9399809837341309
1684592017558978300,13.950978271484376,-4.909473896026611,-9.66640567779541,-2.347957134246826
1684592017575860000,13.96785986328125,-5.737390518188477,-10.001998901367188,-2.7361927032470703
1684592017592733400,13.9847333984375,-6.104090690612793,-10.123434066772461,-3.325425386428833
1684592017609606400,14.0016064453125,-5.694917678833008,-9.884750366210938,-3.6167514324188232
1684592017626479600,14.018479736328125,-4.05403995513916,-9.93978500366211,-2.812164783477783
1684592017643352600,14.0353525390625,-3.4402806758880615,-9.629914283752441,-1.4518451690673828
1684592017660225500,14.0522255859375,-3.772284984588623,-9.105886459350586,-0.4660021960735321
1684592017677099000,14.06909912109375,-4.3686957359313965,-11.292926788330078,-0.5401797294616699
1684592017693972200,14.08597216796875,-3.2997024059295654,-14.758930206298828,-1.5726827383041382
1684592017710842600,14.102842529296876,-1.4620146751403809,-17.32642936706543,-1.7569299936294556
1684592017727721200,14.11972119140625,-0.14297115802764893,-15.79980754852295,-0.45224347710609436
1684592017744591600,14.136591552734375,-0.6185446381568909,-10.461421012878418,0.5826523303985596
1684592017761464800,14.15346484375,-0.6610172390937805,-7.222136974334717,1.0265209674835205
1684592017778338000,14.170338134765625,-1.5589239597320557,-5.8133625984191895,0.9367900490760803
1684592017795211300,14.187211181640626,-2.417947292327881,-5.656632900238037,0.43908295035362244
1684592017812088800,14.2040888671875,-1.1856436729431152,-6.046064376831055,-0.15912270545959473
1684592017828957700,14.220957763671874,1.604387640953064,-6.941578388214111,-1.0301101207733154
1684592017845826600,14.23782666015625,3.528815269470215,-8.556135177612305,-1.8011972904205322
1684592017862708000,14.2547080078125,4.000201225280762,-10.525428771972656,-2.5357937812805176
1684592017879577000,14.2715771484375,3.032902717590332,-11.879167556762695,-2.720041036605835
1684592017896450300,14.2884501953125,1.5056836605072021,-11.703295707702637,-2.4909284114837646
1684592017913313000,14.30531298828125,-2.290529489517212,-9.538987159729004,-3.0215368270874023
1684592017930196200,14.3221962890625,0.0891326442360878,-8.395217895507812,-2.654836654663086
1684592017947069400,14.3390693359375,1.3435698747634888,-8.318049430847168,-2.520240545272827
1684592017963942700,14.355942626953125,0.9930213689804077,-8.880961418151855,-2.5645077228546143
1684592017980816100,14.372816162109375,-0.7148557901382446,-10.071390151977539,-2.255235433578491
1684592017997689300,14.389689453125,-1.2903295755386353,-10.520044326782227,-1.9070796966552734
1684592018014561800,14.406561767578125,-0.8099704384803772,-10.14437198638916,-1.719243049621582
1684592018031435500,14.423435546875,-1.0085747241973877,-9.479764938354492,-1.4219348430633545
1684592018048308500,14.44030859375,-0.3481557071208954,-8.758329391479492,-2.114656925201416
1684592018065181700,14.457181640625,0.7920243144035339,-8.812766075134277,-2.8223342895507812
1684592018082055000,14.474054931640625,0.5365904569625854,-9.256035804748535,-2.9383862018585205
1684592018098928000,14.49092822265625,0.24107688665390015,-9.255437850952148,-2.861815929412842
1684592018115801300,14.50780126953125,0.1585244983434677,-8.930013656616211,-2.8085756301879883
1684592018132674300,14.52467431640625,0.0526420995593071,-8.81515884399414,-2.760719060897827
1684592018149547500,14.541547607421874,-0.03768695518374443,-8.872586250305176,-2.7080769538879395
1684592018166420700,14.558420654296874,0.1543370634317398,-9.079565048217773,-2.435295343399048
1684592018183293700,14.575293701171875,0.4019941985607147,-9.008378982543945,-2.4161527156829834
1684592018200167200,14.592167236328125,0.582054078578949,-8.764909744262695,-2.5399811267852783
1684592018217040100,14.6090400390625,0.582054078578949,-8.707481384277344,-2.693121910095215
1684592018233913300,14.625913330078125,0.6011967062950134,-8.758927345275879,-3.1483564376831055
1684592018250782700,14.64278271484375,0.9505487680435181,-8.926424980163574,-3.397209882736206
1684592018267659500,14.659659423828124,1.3663017749786377,-9.10409164428711,-3.5647075176239014
1684592018284532700,14.67653271484375,0.966102123260498,-9.250054359436035,-3.9188451766967773
1684592018301406000,14.693406005859375,-0.14476576447486877,-9.278767585754395,-4.537389755249023
1684592018318279200,14.710279052734375,-0.039481572806835175,-9.329615592956543,-5.18823766708374
1684592018335152400,14.72715234375,1.2987045049667358,-9.90149974822998,-5.642873764038086
1684592018352025000,14.744025146484375,1.4967105388641357,-11.597413063049316,-6.338587284088135
1684592018368898600,14.760898681640626,-0.6658028960227966,-13.427922248840332,-7.328019142150879
1684592018385771800,14.777771728515624,-1.472184181213379,-14.466407775878906,-7.683353424072266
1684592018402642200,14.79464208984375,-1.8759729862213135,-14.849259376525879,-7.133602619171143
1684592018419520800,14.811520751953125,-0.9906286001205444,-12.256037712097168,-5.550750255584717
1684592018436391200,14.82839111328125,0.15194423496723175,-10.743773460388184,-3.9690945148468018
1684592018453264100,14.84526416015625,0.1657029688358307,-10.713863372802734,-2.600399971008301
1684592018470138000,14.86213818359375,-1.1766705513000488,-10.30469036102295,-2.1170499324798584
1684592018487010600,14.879010498046876,-1.3992030620574951,-9.497113227844238,-1.810170292854309
1684592018503883800,14.8958837890625,0.08195417374372482,-8.96112060546875,-1.8418751955032349
1684592018520757000,14.912757080078125,0.9978070259094238,-9.040681838989258,-1.9232312440872192
1684592018537630200,14.929630126953125,1.073180913925171,-9.81954574584961,-2.0243279933929443
1684592018554503400,14.94650341796875,1.5014961957931519,-10.804790496826172,-2.2983062267303467
1684592018571376400,14.96337646484375,1.540379524230957,-10.9573335647583,-2.551945447921753
1684592018588249600,14.98024951171875,-2.4388844966888428,-10.549356460571289,-3.793222188949585
1684592018605111800,14.99711181640625,-2.2157537937164307,-10.25324535369873,-3.9984066486358643
1684592018621995800,15.013995849609374,-0.631106972694397,-9.462417602539062,-3.1447670459747314
1684592018638869000,15.030868896484375,-0.2273181527853012,-8.0081787109375,-2.2432711124420166
1684592018655742200,15.0477421875,-0.17168502509593964,-6.485147476196289,-1.576271891593933
1684592018672615400,15.064615478515625,-0.08554340898990631,-5.497509956359863,-1.100698471069336
1684592018689488600,15.081488525390625,-0.010767702013254166,-5.125426292419434,-0.7657032608985901
1684592018706361300,15.098361328125,0.04187439754605293,-5.154737949371338,-0.5838487148284912
1684592018723234800,15.11523486328125,0.0526420995593071,-5.537590026855469,-0.46899324655532837
1684592018740108000,15.13210791015625,-0.3852444589138031,-5.747560024261475,-0.16331014037132263
1684592018756981200,15.148981201171875,-0.5108676552772522,-5.432305812835693,0.24885354936122894
1684592018773854200,15.165854248046875,-0.6496513485908508,-5.323431968688965,0.6843472719192505
1684592018790717000,15.182717041015625,-1.1940184831619263,-6.417550563812256,1.1228320598602295
1684592018807600400,15.199600341796875,-3.218346357345581,-9.446864128112793,1.3962119817733765
1684592018824473600,15.2164736328125,-6.5712890625,-12.75912857055664,-0.3086741268634796
1684592018841347000,15.23334716796875,-10.207781791687012,-15.428321838378906,-4.190430641174316
1684592018858220000,15.250219970703125,-11.23908805847168,-15.014364242553711,-7.603193759918213
1684592018875093200,15.26709326171875,-8.720044136047363,-11.618948936462402,-7.650452136993408
1684592018891966200,15.28396630859375,-4.311268329620361,-9.876974105834961,-4.6402812004089355
1684592018908839400,15.30083935546875,-2.345564365386963,-9.215357780456543,-0.5413761138916016
1684592018925712600,15.317712646484376,-1.0971091985702515,-11.353943824768066,0.6005984544754028
1684592018942575000,15.3345751953125,0.5904290080070496,-13.3770751953125,0.8476574420928955
1684592018959458800,15.351458740234374,0.9888339638710022,-14.0715913772583,2.5698914527893066
1684592018976332000,15.36833203125,-0.49172505736351013,-12.629318237304688,4.8538408279418945
1684592018993205200,15.385205322265625,-5.987440586090088,-9.965508460998535,1.8340985774993896
1684592019010067700,15.402067626953125,-3.10109806060791,-7.562515735626221,-1.0618150234222412
1684592019026951400,15.418951416015625,2.1577277183532715,-6.879963397979736,-1.5080764293670654
1684592019043824400,15.435824462890626,2.8325037956237793,-6.355337142944336,-1.7563318014144897
1684592019060697900,15.45269775390625,2.74755859375,-6.511468410491943,-2.2779672145843506
1684592019077571000,15.469571044921874,2.633899450302124,-7.809575080871582,-2.8827531337738037
1684592019094440200,15.486440185546876,2.4191436767578125,-10.000802040100098,-3.7088751792907715
1684592019111321000,15.503321044921876,0.4612165689468384,-11.675179481506348,-4.558925151824951
1684592019128190200,15.520190185546875,-5.49930477142334,-10.956136703491211,-5.560919761657715
1684592019145063400,15.5370634765625,-2.2372891902923584,-9.64965534210205,-4.390231132507324
1684592019161937000,15.55393701171875,0.6526423692703247,-8.432905197143555,-3.4205398559570312
1684592019178809900,15.570809814453124,-3.82373046875,-6.8823561668396,-2.5645077228546143
1684592019195683000,15.58768310546875,0.11186445504426956,-8.141578674316406,-2.7553353309631348
1684592019212556000,15.60455615234375,3.0681967735290527,-8.846264839172363,-3.692723512649536
1684592019229429200,15.62142919921875,1.6791633367538452,-9.8207426071167,-4.091726779937744
1684592019246302500,15.638302490234375,-0.5688936114311218,-9.43310546875,-3.422334671020508
1684592019263175400,15.655175537109375,-0.6430711150169373,-8.860024452209473,-3.0580272674560547
1684592019280049000,15.672048828125,0.050847481936216354,-8.322834968566895,-2.8941190242767334
1684592019296911000,15.6889111328125,0.16390834748744965,-7.974679470062256,-2.582453727722168
1684592019313795000,15.705795166015625,-0.21774685382843018,-8.02193832397461,-2.3820550441741943
1684592019330668000,15.72266796875,-0.5252245664596558,-8.561519622802734,-2.3539392948150635
1684592019347541000,15.739541015625,-0.4893322288990021,-9.287740707397461,-2.392822742462158
1684592019364414500,15.75641455078125,-0.4007977843284607,-9.866206169128418,-2.4029922485351562
1684592019381287700,15.77328759765625,-0.6765705943107605,-10.124032974243164,-2.255235433578491
1684592019398160400,15.790160400390626,-0.6819544434547424,-9.957133293151855,-2.14516544342041
1684592019415033900,15.807033935546874,-0.09571290761232376,-9.795618057250977,-2.407777786254883
1684592019431907000,15.823906982421875,0.5377869009971619,-9.528818130493164,-2.8809585571289062
1684592019448780000,15.840780029296875,0.5904290080070496,-9.512666702270508,-3.7088751792907715
1684592019465653200,15.8576533203125,0.5335994362831116,-9.659825325012207,-4.020540237426758
1684592019482526500,15.8745263671875,-0.04366901144385338,-9.522237777709961,-4.633102893829346
1684592019499399700,15.891399658203126,-0.6969096064567566,-9.523433685302734,-5.231906890869141
1684592019516273000,15.90827294921875,0.17706887423992157,-9.720842361450195,-5.638088226318359
1684592019533145900,15.925145751953124,1.2921242713928223,-10.574481010437012,-6.0023956298828125
1684592019550018800,15.942018798828125,0.7304090857505798,-11.94736385345459,-6.726822853088379
1684592019566892500,15.958892578125,-1.1318050622940063,-12.560523986816406,-7.590033531188965
1684592019583765200,15.97576513671875,-3.48993182182312,-13.289138793945312,-7.76470947265625
1684592019600638500,15.992638427734375,-0.6376872062683105,-12.171690940856934,-7.086942672729492
1684592019617511700,16.00951171875,1.1521440744400024,-10.25743293762207,-4.72881555557251
1684592019634384600,16.026384521484374,-2.6015963554382324,-9.422337532043457,-3.1788649559020996
1684592019651257900,16.0432578125,-4.013959884643555,-10.462616920471191,-2.2911276817321777
1684592019668130800,16.060130859375,-1.2675977945327759,-10.092328071594238,-2.8109683990478516
1684592019684992300,16.0769921875,1.3010972738265991,-9.525827407836914,-3.019144058227539
1684592019701875700,16.093875732421875,1.607378602027893,-9.756733894348145,-2.861815929412842
1684592019718751000,16.1107509765625,1.5756736993789673,-10.244272232055664,-2.8145575523376465
1684592019735623400,16.12762353515625,1.9453648328781128,-10.741978645324707,-3.015554666519165
1684592019752496600,16.14449658203125,2.3748764991760254,-10.75693416595459,-3.331407308578491
1684592019769369900,16.161369873046876,2.242672920227051,-9.982257843017578,-3.326023578643799
1684592019786240500,16.178240478515626,1.1359925270080566,-8.937192916870117,-3.0520453453063965
1684592019803118600,16.19511865234375,-6.819544315338135,-7.766504287719727,-4.380660057067871
1684592019819989500,16.211989501953123,-5.646463394165039,-7.708477973937988,-4.212564468383789
1684592019836862200,16.2288623046875,-1.4452649354934692,-7.532007694244385,-3.5497524738311768
1684592019853735400,16.2457353515625,1.7012969255447388,-7.157530784606934,-2.4945175647735596
1684592019870608600,16.262608642578126,3.0975089073181152,-6.997211456298828,-1.6707884073257446
1684592019887481900,16.27948193359375,2.600399971008301,-6.738786697387695,-1.2352946996688843
1684592019904355000,16.29635498046875,0.8524430394172668,-6.183651924133301,-1.0055837631225586
1684592019921228000,16.31322802734375,-0.5180460810661316,-5.878567218780518,-0.924227774143219
1684592019938101200,16.330101318359375,-1.2191431522369385,-5.8719868659973145,-0.7621139883995056
1684592019954974200,16.34697412109375,-1.5337992906570435,-5.9676995277404785,-0.3840480446815491
1684592019971847400,16.363847412109376,-1.7748762369155884,-6.585047721862793,0.16510476171970367
1684592019988704000,16.3807041015625,-2.902493953704834,-8.467002868652344,1.038485050201416
1684592020005593900,16.39759375,-3.562314748764038,-11.645867347717285,1.7665013074874878
1684592020022467000,16.414467041015627,-4.952544689178467,-14.356935501098633,0.08255238085985184
1684592020039340000,16.431340087890625,-9.352945327758789,-14.613566398620605,-4.116851329803467
1684592020056213200,16.448213134765624,-11.502896308898926,-13.500903129577637,-6.682555675506592
1684592020073086200,16.465086181640626,-7.9758758544921875,-11.69013500213623,-6.999006271362305
1684592020089959200,16.481959228515624,-3.9284164905548096,-8.975478172302246,-6.0508503913879395
1684592020106832400,16.498832275390626,-0.9505487680435181,-7.16650390625,-3.362514019012451
1684592020123705600,16.51570556640625,-0.23449662327766418,-6.333203315734863,-1.1880364418029785
1684592020140578800,16.532578857421875,0.25782662630081177,-8.873184204101562,-0.99481600522995
1684592020157452000,16.5494521484375,1.8693926334381104,-12.08076286315918,-2.792423963546753
1684592020174325200,16.5663251953125,0.6957131624221802,-14.264812469482422,-3.3888349533081055
1684592020191198200,16.5831982421875,-6.060421466827393,-13.716856002807617,-3.726821184158325
1684592020208071400,16.600071533203124,-6.870391845703125,-11.826525688171387,-1.7916259765625
1684592020224944400,16.6169443359375,0.2961117923259735,-7.921439170837402,0.6245267391204834
1684592020241817900,16.63381787109375,1.3513466119766235,-5.9264235496521,0.5120640397071838
1684592020258690800,16.65069091796875,2.1056840419769287,-6.061617851257324,-0.028115665540099144
1684592020275564000,16.66756396484375,3.2751760482788086,-7.262814998626709,-0.7950153350830078
1684592020292437200,16.684437255859375,4.673780918121338,-8.541180610656738,-1.786242127418518
1684592020309310500,16.701310546875,4.7952165603637695,-10.16889762878418,-2.5974090099334717
1684592020326180600,16.7181806640625,3.4809587001800537,-11.788839340209961,-3.1166515350341797
1684592020343059200,16.73505908203125,-9.230313301086426,-10.788041114807129,-4.959722995758057
1684592020359929600,16.7519296875,-7.3262248039245605,-9.829116821289062,-4.685146808624268
1684592020376802800,16.768802734375,-0.7680960893630981,-9.757332801818848,-3.4372897148132324
1684592020393675800,16.78567578125,0.30568310618400574,-8.839685440063477,-2.9617161750793457
1684592020410549000,16.802549072265624,-0.9810572862625122,-9.041878700256348,-2.550748825073242
1684592020427422000,16.819421875,-0.22791635990142822,-10.105487823486328,-2.5088746547698975
1684592020444295200,16.836295166015624,1.1371889114379883,-10.286744117736816,-2.536990165710449
1684592020461168400,16.85316845703125,1.090528964996338,-9.531808853149414,-2.3778674602508545
1684592020478040000,16.8700400390625,0.28115665912628174,-8.693124771118164,-2.1619153022766113
1684592020494916400,16.886916259765623,-0.2267199456691742,-8.151748657226562,-2.1475582122802734
1684592020511787500,16.90378759765625,0.01615155301988125,-8.01356315612793,-2.1373889446258545
1684592020528660700,16.92066064453125,0.18903298676013947,-8.334200859069824,-2.200200319290161
1684592020545534000,16.937533935546874,-0.20877377688884735,-8.963513374328613,-2.35872483253479
1684592020562407200,16.9544072265625,-0.7848458290100098,-9.227920532226562,-3.063411235809326
1684592020579280400,16.9712802734375,-0.6981059908866882,-9.385248184204102,-3.36969256401062
1684592020596153300,16.9881533203125,-0.6119644045829773,-9.413962364196777,-3.3792638778686523
1684592020613026600,17.005026611328127,-0.3032902777194977,-9.229117393493652,-3.2303106784820557
1684592020629899800,17.021899658203125,0.10229317098855972,-9.16869831085205,-2.991028308868408
1684592020646773000,17.03877294921875,0.3595215976238251,-9.122037887573242,-2.861217737197876
1684592020663646000,17.05564599609375,0.5353940725326538,-8.96530818939209,-2.727219581604004
1684592020680508400,17.07250830078125,0.33379876613616943,-8.692526817321777,-2.5878376960754395
1684592020697392000,17.08939208984375,0.19920247793197632,-8.505288124084473,-2.726621389389038
1684592020714265300,17.106265380859377,0.2841476798057556,-8.201997756958008,-3.64546537399292
1684592020731138600,17.123138671875,0.6771687865257263,-8.617751121520996,-4.018745422363281
1684592020748011800,17.14001171875,1.1473584175109863,-9.20698356628418,-4.272983074188232
1684592020764884700,17.156884765625,0.7722834944725037,-9.586843490600586,-4.646861553192139
1684592020781757400,17.17375732421875,-0.01375873014330864,-9.793225288391113,-5.240880012512207
1684592020798631000,17.190630859375,0.33918261528015137,-9.687342643737793,-5.84865665435791
1684592020815504100,17.207504150390626,1.2113664150238037,-9.497711181640625,-6.307480335235596
1684592020832377000,17.224377197265625,1.536790370941162,-9.712467193603516,-6.948757171630859
1684592020849250300,17.241250244140623,0.4695914387702942,-9.974481582641602,-7.667799949645996
1684592020866120700,17.25812060546875,1.552941918373108,-11.416156768798828,-6.227919101715088
1684592020882999000,17.2749990234375,2.0757737159729004,-12.19382381439209,-5.496313571929932
1684592020899870000,17.291869873046874,0.1866401731967926,-13.331611633300781,-5.00578498840332
1684592020916745000,17.308744873046876,-1.6414763927459717,-13.041481971740723,-4.097110748291016
1684592020933613800,17.32561376953125,-1.8628123998641968,-11.484950065612793,-3.2099716663360596
1684592020950478800,17.342478759765626,-2.043470621109009,-10.563714027404785,-2.4717857837677
1684592020967362300,17.3593623046875,-2.331207513809204,-10.311869621276855,-1.648654818534851
1684592020984235300,17.3762353515625,-2.321636199951172,-10.342377662658691,-1.0169496536254883
1684592021001108500,17.3931083984375,-1.5158531665802002,-10.211370468139648,-0.7914260625839233
1684592021017981700,17.409981689453126,-0.08195417374372482,-9.853045463562012,-0.6131607890129089
1684592021034855000,17.42685498046875,1.0139585733413696,-9.594022750854492,-0.4253242313861847
1684592021051728000,17.443727783203126,1.7060825824737549,-9.64965534210205,-0.20039889216423035
1684592021068600800,17.460600830078125,1.5032907724380493,-10.236495018005371,-0.35892340540885925
1684592021085474000,17.47747412109375,0.3278166949748993,-10.716256141662598,-1.7670994997024536
1684592021102347300,17.49434716796875,-0.6460621356964111,-10.481760025024414,-2.5764718055725098
1684592021119220200,17.51122021484375,-1.6564314365386963,-9.687342643737793,-1.786242127418518
1684592021136093400,17.528093505859374,-2.462214469909668,-8.683553695678711,-0.8231309652328491
1684592021152966700,17.544966552734376,-2.6865415573120117,-7.613961696624756,-0.02751746028661728
1684592021169839600,17.561839599609375,-2.417947292327881,-6.85244607925415,0.7435696125030518
1684592021186712800,17.578712890625,-2.2193429470062256,-6.472585201263428,1.4715858697891235
1684592021203585800,17.595585693359375,-2.1535403728485107,-6.26859712600708,2.022533416748047
1684592021220459300,17.612459228515625,-2.066800594329834,-6.4947190284729,2.400599241256714
1684592021237332200,17.629332275390624,-1.7587246894836426,-7.245467185974121,2.231905221939087
1684592021254205200,17.646205078125,-1.2490534782409668,-8.138587951660156,1.3986048698425293
1684592021271078400,17.663078369140624,-1.441077470779419,-8.804390907287598,0.2919243574142456
1684592021287951600,17.67995166015625,-2.3988046646118164,-8.956335067749023,-0.7758727669715881
1684592021304824600,17.696824462890625,-2.599801778793335,-8.752346992492676,-1.7330018281936646
1684592021321697800,17.71369775390625,-2.289931297302246,-8.612964630126953,-2.4358935356140137
1684592021338571000,17.730571044921874,-2.2851455211639404,-8.583054542541504,-2.8761727809906006
1684592021355444000,17.74744384765625,-3.019742250442505,-8.565707206726074,-3.125624656677246
1684592021372317000,17.76431689453125,-4.096512317657471,-8.891729354858398,-3.3756744861602783
1684592021389190100,17.781190185546876,-4.54636287689209,-9.616155624389648,-3.6257245540618896
1684592021406051300,17.79805126953125,-4.781457901000977,-10.494919776916504,-3.64546537399292
1684592021422937900,17.814937744140625,-5.057230472564697,-10.777273178100586,-3.119642496109009
1684592021439809500,17.8318095703125,-4.649254322052002,-10.306485176086426,-2.5974090099334717
1684592021456682800,17.848682861328125,-3.3266217708587646,-10.564909934997559,-2.338385820388794
1684592021473557000,17.865556884765624,-1.568495273590088,-12.42533016204834,-2.334796667098999
1684592021490417400,17.88241748046875,-0.34277185797691345,-13.50568962097168,-1.8759729862213135
1684592021507302100,17.89930224609375,0.11425728350877762,-12.3009033203125,-0.6299105882644653
1684592021524175400,17.91617529296875,0.380458801984787,-9.817750930786133,-0.11485548317432404
1684592021541048300,17.93304833984375,0.7698906660079956,-8.332406997680664,0.03529413416981697
1684592021557921500,17.949921630859375,0.5365904569625854,-7.256833076477051,0.09870393574237823
1684592021574794500,17.96679443359375,-0.41874396800994873,-7.000801086425781,0.3475574851036072
1684592021591667700,17.983667724609376,-1.1491531133651733,-7.809575080871582,-0.22851456701755524
1684592021608540700,18.000540771484374,0.1339980661869049,-8.910871505737305,-1.0809576511383057
1684592021625414000,18.017413818359376,1.5852450132369995,-10.357333183288574,-1.77607262134552
1684592021642287000,18.034287109375,0.7070791125297546,-11.33240795135498,-2.466402053833008
1684592021659159800,18.051159912109377,-2.33180570602417,-11.21216869354248,-2.7122645378112793
1684592021676033300,18.068033203125,-3.62153697013855,-10.845468521118164,-2.42512583732605
1684592021692906200,18.08490625,-1.6923238039016724,-10.179067611694336,-1.8586249351501465
1684592021709779500,18.101779541015624,0.373878538608551,-9.287740707397461,-1.7126628160476685
1684592021726649300,18.1186494140625,1.2741780281066895,-8.984451293945312,-1.7599210739135742
1684592021743529000,18.135529052734373,1.4279168844223022,-9.262018203735352,-1.7886348962783813
1684592021760398800,18.15239892578125,1.420140266418457,-9.601201057434082,-1.82273268699646
1684592021777271800,18.169271728515625,1.44945228099823,-9.768099784851074,-1.9423737525939941
1684592021794147300,18.186147216796876,1.649253010749817,-9.65803050994873,-2.200798511505127
1684592021811005000,18.2030048828125,1.7204394340515137,-9.538389205932617,-2.3635106086730957
1684592021827891200,18.21989111328125,1.581655740737915,-9.394820213317871,-2.38265323638916
1684592021844764200,18.23676416015625,1.1994023323059082,-9.268598556518555,-2.4879374504089355
1684592021861637400,18.253637451171876,0.7657032608985901,-9.309874534606934,-2.7080769538879395
1684592021878510600,18.270510498046875,0.41874396800994873,-9.571290969848633,-3.019742250442505
1684592021895383800,18.2873837890625,0.07178468257188797,-9.841679573059082,-3.2548370361328125
1684592021912256500,18.304256591796875,-0.10887342691421509,-10.027721405029297,-3.236292600631714
1684592021929130000,18.3211298828125,-0.0568295381963253,-9.903892517089844,-3.101696252822876
1684592021946001400,18.33800146484375,-0.02512463741004467,-9.55513858795166,-3.10109806060791
1684592021962877400,18.35487744140625,-0.007178467698395252,-9.311071395874023,-3.239881753921509
1684592021979749400,18.371749267578124,0.040677983313798904,-9.33021354675293,-3.211168050765991
1684592021996622600,18.38862255859375,0.4139583110809326,-9.551549911499023,-3.1345977783203125
1684592022013495300,18.405495361328125,0.5521438121795654,-9.527621269226074,-3.22552490234375
1684592022030358300,18.422358154296877,0.3326023519039154,-9.570094108581543,-3.153740167617798
1684592022047241500,18.439241455078125,0.3810569941997528,-9.690333366394043,-3.0963125228881836
1684592022064115000,18.456114990234376,0.4618147611618042,-9.7005033493042,-2.9958138465881348
1684592022080988000,18.47298779296875,0.494716078042984,-9.509675025939941,-2.833101987838745
1684592022097861000,18.489861083984376,0.527019202709198,-9.337990760803223,-2.760719060897827
1684592022114733800,18.50673388671875,0.5700899958610535,-9.294919967651367,-2.765504837036133
1684592022131607300,18.523607177734377,0.7178468108177185,-9.30449104309082,-2.8085756301879883
1684592022148480000,18.54047998046875,0.8512466549873352,-9.2859468460083,-2.899502754211426
1684592022165353200,18.557353271484374,0.8368897438049316,-9.256634712219238,-3.004786968231201
1684592022182226700,18.574226806640624,0.6747759580612183,-9.1986083984375,-3.1627132892608643
1684592022199088600,18.591088623046875,0.6029912829399109,-9.226723670959473,-3.325425386428833
1684592022215972900,18.607972900390624,0.5988038778305054,-9.259625434875488,-3.4881372451782227
1684592022232845800,18.624845703125,0.4504488706588745,-9.239884376525879,-3.607778310775757
1684592022249719000,18.641718994140625,0.43130627274513245,-9.086145401000977,-3.7226338386535645
1684592022266592000,18.658592041015623,0.39182472229003906,-8.85643482208252,-3.775275945663452
1684592022283465200,18.67546533203125,0.41994038224220276,-8.761320114135742,-3.689134359359741
1684592022300338400,18.69233837890625,0.3774677813053131,-8.861818313598633,-3.5982069969177246
1684592022317211600,18.709211669921874,0.4827519655227661,-8.943174362182617,-3.7130625247955322
1684592022334084600,18.726084716796876,0.18305093050003052,-9.104690551757812,-3.6221351623535156
1684592022350957600,18.74295751953125,0.10229317098855972,-9.200403213500977,-3.5509488582611084
1684592022367830800,18.759830810546877,0.13579268753528595,-9.210572242736816,-3.3068809509277344
1684592022384703700,18.776703857421875,0.25064817070961,-9.269196510314941,-3.1106693744659424
1684592022401577000,18.793576904296874,0.1453639715909958,-9.264410972595215,-2.967100143432617
1684592022418450000,18.810449951171876,0.1453639715909958,-9.254839897155762,-2.943171739578247
1684592022435323000,18.827322998046874,0.11665010452270508,-9.264410972595215,-2.933600664138794
1684592022452196000,18.844196044921876,0.11665010452270508,-9.259625434875488,-2.991028308868408
1684592022469069300,18.8610693359375,0.12203395366668701,-9.321240425109863,-3.139383316040039
1684592022485942500,18.877942626953125,0.09810572862625122,-9.33021354675293,-3.2781670093536377
1684592022502815700,18.894815673828123,0.0933200865983963,-9.320642471313477,-3.3164522647857666
1684592022519685400,18.911685302734377,0.04546362906694412,-9.378069877624512,-3.1728827953338623
1684592022536565200,18.928565185546876,0.04127619042992592,-9.4121675491333,-2.9240293502807617
1684592022553435000,18.945434814453126,0.059820566326379776,-9.403194427490234,-2.746960401535034
1684592022570305500,18.962305419921876,0.02632104977965355,-9.364909172058105,-2.713460922241211
1684592022587181000,18.97918115234375,0.15553347766399384,-9.485149383544922,-2.651247501373291
1684592022604054300,18.99605419921875,0.2225325107574463,-9.470791816711426,-2.723032236099243
1684592022620927500,19.012927490234375,0.1459621787071228,-9.398408889770508,-2.933600664138794
1684592022637800400,19.029800537109374,0.15074782073497772,-9.426525115966797,-3.077169895172119
1684592022654673700,19.046673583984376,0.18843477964401245,-9.29731273651123,-3.177668571472168
1684592022671546600,19.063546630859374,0.1740778535604477,-9.230313301086426,-3.1968109607696533
1684592022688419600,19.080419677734376,0.2027917206287384,-9.273384094238281,-3.1920254230499268
1684592022705292500,19.09729248046875,0.3361915946006775,-9.297910690307617,-3.1824541091918945
1684592022722166000,19.114166015625,0.41216370463371277,-9.235696792602539,-3.1866414546966553
1684592022739039200,19.131039306640623,0.3936193287372589,-9.245268821716309,-3.200998544692993
1684592022755912000,19.147911865234374,0.34576287865638733,-9.288339614868164,-3.177668571472168
1684592022772785200,19.16478515625,0.34576287865638733,-9.269196510314941,-3.1100711822509766
1684592022789658400,19.181658447265626,0.4169493317604065,-9.255437850952148,-3.0717861652374268
1684592022806528800,19.19852880859375,0.39840495586395264,-9.265008926391602,-3.04307222366333
1684592022823407000,19.215406982421875,0.37926238775253296,-9.29312515258789,-3.1250264644622803
1684592022840277800,19.23227783203125,0.3846462368965149,-9.393623352050781,-3.2350962162017822
1684592022857150700,19.249150634765623,0.4468596279621124,-9.426525115966797,-3.335594654083252
1684592022874011100,19.26601123046875,0.46061834692955017,-9.340981483459473,-3.3541390895843506
1684592022890888400,19.282888427734374,0.37866419553756714,-9.192625999450684,-3.2967114448547363
1684592022907770000,19.29977001953125,0.4163511395454407,-9.101698875427246,-3.277568817138672
1684592022924643000,19.31664306640625,0.4737788736820221,-9.125627517700195,-3.2679975032806396
1684592022941516300,19.333516357421875,0.49351966381073,-9.154341697692871,-3.363710403442383
1684592022958389200,19.35038916015625,0.527019202709198,-9.197412490844727,-3.4259238243103027
1684592022975262700,19.3672626953125,0.6125625967979431,-9.135198593139648,-3.4546377658843994
1684592022992142000,19.38414208984375,0.6795616149902344,-9.145368576049805,-3.468994617462158
1684592023009008600,19.401008544921876,0.6035895347595215,-9.245268821716309,-3.4642090797424316
1684592023025879000,19.417879150390625,0.4127618968486786,-9.306883811950684,-3.3690943717956543
1684592023042757400,19.43475732421875,0.37926238775253296,-9.360123634338379,-3.201596736907959
1684592023059628000,19.4516279296875,0.4414757788181305,-9.408578872680664,-2.9766714572906494
1684592023076501200,19.468501220703125,0.45104706287384033,-9.394820213317871,-2.8283164501190186
1684592023093374000,19.4853740234375,0.4893322288990021,-9.437891006469727,-2.7565317153930664
1684592023110261200,19.50226123046875,0.5754738450050354,-9.45763111114502,-2.7278177738189697
1684592023127120400,19.519120361328124,0.5892325639724731,-9.390632629394531,-2.7517459392547607
1684592023143993600,19.53599365234375,0.5174478888511658,-9.299705505371094,-2.7942185401916504
1684592023160866600,19.552866455078124,0.4983053207397461,-9.327820777893066,-2.785245656967163
1684592023177739800,19.56973974609375,0.4462614357471466,-9.32303524017334,-2.7804598808288574
1684592023194612700,19.58661279296875,0.364905446767807,-9.30867862701416,-2.8522446155548096
1684592023211485700,19.603485595703123,0.37926238775253296,-9.308079719543457,-3.0005996227264404
1684592023228359000,19.62035888671875,0.5132604837417603,-9.360722541809082,-3.129812002182007
1684592023245238500,19.637238525390625,0.5276173949241638,-9.34157943725586,-3.153740167617798
1684592023262105300,19.654105224609374,0.43190449476242065,-9.312865257263184,-3.0867412090301514
1684592023278978300,19.670978271484376,0.4175475537776947,-9.312865257263184,-3.0245277881622314
1684592023295851300,19.687851318359375,0.4749752879142761,-9.30329418182373,-3.0861430168151855
1684592023312727600,19.7047275390625,0.48454657196998596,-9.355937004089355,-3.1824541091918945
1684592023329594000,19.721593994140626,0.4414757788181305,-9.32183837890625,-3.2446675300598145
1684592023346470400,19.738470458984374,0.39840495586395264,-9.317052841186523,-3.263810157775879
1684592023363343600,19.755343505859376,0.3409772217273712,-9.32602596282959,-3.2446675300598145
1684592023380216800,19.772216796875,0.34576287865638733,-9.250054359436035,-3.248854875564575
1684592023397089500,19.789089599609376,0.43130627274513245,-9.211769104003906,-3.2919256687164307
1684592023413962800,19.805962646484375,0.49351966381073,-9.192625999450684,-3.334996461868286
1684592023430836000,19.8228359375,0.5078766345977783,-9.178269386291504,-3.339782238006592
1684592023447709200,19.839709228515623,0.5216353535652161,-9.163912773132324,-3.315854072570801
1684592023464582000,19.856581787109373,0.5312066078186035,-9.130413055419922,-3.3445677757263184
1684592023481455400,19.873455322265624,0.550349235534668,-9.130413055419922,-3.363710403442383
1684592023498328000,19.890328125,0.5264210104942322,-9.111868858337402,-3.334996461868286
1684592023515201500,19.907201416015624,0.5551348328590393,-9.068798065185547,-3.2201411724090576
1684592023532074500,19.924074462890626,0.5880361795425415,-9.045467376708984,-3.177070379257202
1684592023548947700,19.94094775390625,0.5599204897880554,-9.17886734008789,-3.2201411724090576
1684592023565819100,19.957819091796875,0.4695914387702942,-9.226125717163086,-3.363710403442383
1684592023582695400,19.9746953125,0.47916272282600403,-9.211769104003906,-3.4498519897460938
1684592023599566800,19.99156689453125,0.47916272282600403,-9.163313865661621,-3.545564889907837
1684592023616440000,20.008440185546874,0.40737804770469666,-9.134002685546875,-3.679563045501709
1684592023633313000,20.02531298828125,0.40797626972198486,-9.210572242736816,-3.751347780227661
1684592023650186000,20.04218603515625,0.388235479593277,-9.162715911865234,-3.7848472595214844
1684592023667059200,20.05905908203125,0.3643072545528412,-9.08554744720459,-3.8949170112609863
1684592023683932200,20.07593212890625,0.27337998151779175,-9.061020851135254,-3.9667017459869385
1684592023700805600,20.0928056640625,0.35473597049713135,-9.023334503173828,-3.971487283706665
1684592023717678600,20.1096787109375,0.4546363055706024,-9.042476654052734,-3.9906299114227295
1684592023734551600,20.126551513671874,0.4265206456184387,-9.123832702636719,-4.043272018432617
1684592023751424800,20.1434248046875,0.35473597049713135,-9.104690551757812,-3.9762730598449707
1684592023768297700,20.160297607421874,0.5210371017456055,-8.97667407989502,-3.7561333179473877
1684592023785170700,20.177170654296877,0.6496513485908508,-8.953344345092773,-3.655634880065918
1684592023802044200,20.194044189453123,0.6119644045829773,-8.9581298828125,-3.6747772693634033
1684592023818917000,20.210917236328125,0.6687939167022705,-8.938986778259277,-3.6843485832214355
1684592023835790300,20.227790283203124,0.5736792087554932,-8.953344345092773,-3.6221351623535156
1684592023852663300,20.244663330078126,0.5210371017456055,-8.885746955871582,-3.66520619392395
1684592023869536300,20.261536376953124,0.5880361795425415,-8.924630165100098,-3.689134359359741
1684592023886409200,20.2784091796875,0.7357929348945618,-8.953344345092773,-3.7609190940856934
1684592023903282400,20.295282470703125,0.7692924737930298,-8.948558807373047,-3.813561201095581
1684592023920155600,20.31215576171875,0.7070791125297546,-8.871988296508789,-3.861417531967163
1684592023937028900,20.32902880859375,0.6400800347328186,-8.81396198272705,-3.9326040744781494
1684592023953901600,20.345901611328124,0.6921239495277405,-8.790034294128418,-4.023531436920166
1684592023970774800,20.36277490234375,0.6346961855888367,-8.760722160339355,-4.095315933227539
1684592023987647700,20.379647705078124,0.6113662123680115,-8.808578491210938,-4.182055950164795
1684592024004521000,20.39652099609375,0.6065805554389954,-8.793622970581055,-4.2586259841918945
1684592024021394200,20.413394287109377,0.5497509837150574,-8.855836868286133,-4.215555191040039
1684592024038267000,20.430266845703127,0.4492524564266205,-8.80798053741455,-4.244269371032715
1684592024055140400,20.447140380859373,0.39182472229003906,-8.754739761352539,-4.272983074188232
1684592024072013300,20.464013427734375,0.3678964674472809,-8.697312355041504,-4.2346978187561035
1684592024088886300,20.48088623046875,0.19621145725250244,-8.745168685913086,-4.024129390716553
1684592024105761800,20.49776171875,0.1333998590707779,-8.625527381896973,-4.019343852996826
1684592024122630100,20.514630126953126,0.0568295381963253,-8.597412109375,-3.779463291168213
1684592024139505700,20.531505615234376,0.31465616822242737,-8.688937187194824,-3.803391695022583
1684592024156379000,20.54837890625,0.3206382393836975,-8.923434257507324,-3.6939198970794678
1684592024173251800,20.565251953125,0.16390834748744965,-9.086145401000977,-3.5886356830596924
1684592024190131200,20.582131103515625,-0.013160524889826775,-8.961718559265137,-3.3780672550201416
1684592024206998000,20.598998046875,0.14356936514377594,-8.843274116516113,-3.1962127685546875
1684592024223871000,20.61587109375,0.3200400173664093,-8.772088050842285,-3.153141975402832
1684592024240744200,20.632744140625,0.49651068449020386,-8.796015739440918,-3.311068296432495
1684592024257617000,20.649616943359376,0.38763725757598877,-8.913862228393555,-3.7322051525115967
1684592024274490400,20.666490478515627,0.3068794906139374,-9.07537841796875,-4.038486480712891
1684592024291354600,20.683354736328123,0.31106695532798767,-8.850452423095703,-4.1629133224487305
1684592024308236500,20.700236572265624,0.3433700501918793,-8.563314437866211,-4.377668857574463
1684592024325109500,20.717109619140626,0.24825534224510193,-8.739784240722656,-4.378267288208008
1684592024341982700,20.733982666015624,1.0917253494262695,-9.645467758178711,-4.60857629776001
1684592024358852400,20.750852294921874,1.8771693706512451,-11.486146926879883,-5.352146148681641
1684592024375732200,20.767732177734374,0.9391828775405884,-12.920045852661133,-6.096313953399658
1684592024392601900,20.784601806640627,0.9451649188995361,-13.195818901062012,-6.512664794921875
1684592024409475000,20.80147509765625,0.3451646566390991,-13.490734100341797,-6.340980052947998
1684592024426347800,20.81834765625,-1.160519003868103,-12.88355541229248,-4.6995038986206055
1684592024443221000,20.835220947265626,-1.038485050201416,-11.330613136291504,-2.9413771629333496
1684592024460094200,20.85209423828125,-0.8530412912368774,-10.187442779541016,-1.628315806388855
1684592024476967400,20.868967529296874,-2.379063844680786,-10.265807151794434,-0.9110672473907471
1684592024493840100,20.885840087890625,-3.6185460090637207,-10.521241188049316,-0.44327038526535034
1684592024510713300,20.90271337890625,-2.6356940269470215,-10.553544044494629,-0.2512463629245758
1684592024527586600,20.919586669921873,-0.8219345808029175,-10.874780654907227,-0.2027917206287384
1684592024544459300,20.936459228515623,0.8530412912368774,-11.104491233825684,-0.13998012244701385
1684592024561332700,20.953332763671874,2.4053850173950195,-11.630314826965332,-0.29790642857551575
1684592024578205700,20.970205810546876,2.940778970718384,-11.680563926696777,-1.8580267429351807
1684592024595079000,20.987078857421874,0.8524430394172668,-10.737792015075684,-3.3176486492156982
1684592024611951900,21.003951904296876,-2.2821545600891113,-10.501500129699707,-3.87876558303833
1684592024628824800,21.020824951171875,-4.715655326843262,-10.279565811157227,-3.7746777534484863
1684592024645697800,21.03769775390625,-5.408975601196289,-9.891928672790527,-3.1232316493988037
1684592024662571300,21.0545712890625,-4.560121536254883,-8.899505615234375,-1.4757733345031738
1684592024679444200,21.0714443359375,-3.9218363761901855,-7.616354465484619,0.4983053207397461
1684592024696317200,21.088317138671876,-3.7322051525115967,-7.486543655395508,1.7282161712646484
1684592024713190100,21.105190185546874,-3.4301111698150635,-7.885547161102295,2.221137523651123
1684592024730066700,21.122066650390625,-3.01196551322937,-8.593822479248047,2.187039852142334
1684592024746936300,21.138936279296875,-3.294318675994873,-9.514460563659668,1.7072789669036865
1684592024763809500,21.1558095703125,-4.009174346923828,-9.69631576538086,0.9266205430030823
1684592024780682500,21.1726826171875,-4.8329033851623535,-8.812167167663574,0.037088751792907715
1684592024797555500,21.189555419921874,-4.617549419403076,-7.768298625946045,-0.851844847202301
1684592024814428700,21.2064287109375,-4.023531436920166,-7.06062126159668,-1.6313068866729736
1684592024831301600,21.223301513671874,-3.744767427444458,-6.468397617340088,-1.7545372247695923
1684592024848174800,21.2401748046875,-2.9958138465881348,-6.553941249847412,-0.9834501147270203
1684592024865047800,21.2570478515625,-3.7573297023773193,-7.098906517028809,-0.14715859293937683
1684592024881921000,21.273921142578125,-5.6446685791015625,-7.45782995223999,0.41156548261642456
1684592024898795800,21.290795654296875,-6.781857490539551,-6.9822564125061035,0.9379864931106567
1684592024915665400,21.30766552734375,-6.023332595825195,-5.952744483947754,1.211964726448059
1684592024932540200,21.3245400390625,-5.024927616119385,-5.057828903198242,1.2329018115997314
1684592024949413400,21.341413330078126,-4.478167533874512,-4.690530776977539,1.0755738019943237
