time,seconds_elapsed,z,y,x
1684592003773598000,0.165597900390625,-0.6077022552490234,-1.7815885543823242,1.4394874572753906
1684592003790458000,0.1824580078125,0.4869556427001953,-1.9211926460266113,3.053189992904663
1684592003807343900,0.19934375,5.535065650939941,-4.061654090881348,5.625272274017334
1684592003824215300,0.21621533203125,4.072596549987793,-5.2245941162109375,0.6591466665267944
1684592003841088300,0.233088134765625,-1.9923624992370605,-3.170240640640259,-1.6520185470581055
1684592003857961500,0.24996142578125,-0.04651927947998047,-1.8054049015045166,0.36530375480651855
1684592003874834400,0.26683447265625,1.1962862014770508,-0.16796636581420898,1.1645833253860474
1684592003891708200,0.283708251953125,-1.9998979568481445,-0.8566360473632812,-0.1413431167602539
1684592003908581400,0.300581298828125,-0.9443902969360352,-2.9458861351013184,-0.0645439624786377
1684592003925454300,0.317454345703125,0.36374855041503906,-2.6186187267303467,-0.16297483444213867
1684592003942327600,0.33432763671875,2.3840689659118652,-1.9131138324737549,-0.6920826435089111
1684592003959200500,0.351200439453125,1.2586579322814941,-2.9996209144592285,-2.150451898574829
1684592003976073700,0.36807373046875,0.4843263626098633,-3.4808783531188965,-1.7894225120544434
1684592003992928000,0.384927978515625,1.7592601776123047,-1.353895664215088,-0.6278998851776123
1684592004009820400,0.4018203125,2.1631336212158203,-2.37918758392334,0.252716064453125
1684592004026683000,0.418682861328125,2.4577226638793945,-3.6351871490478516,0.2736055850982666
1684592004043567400,0.4355673828125,2.766660690307617,-3.389983654022217,-1.2698309421539307
1684592004060439000,0.45243896484375,3.2683916091918945,-2.1746814250946045,-0.590458869934082
1684592004077312500,0.4693125,1.1473522186279297,-1.2196524143218994,0.029712677001953125
1684592004094186800,0.486186767578125,-0.35100269317626953,-1.88334059715271,0.08767533302307129
1684592004111056600,0.503056640625,-1.1335606575012207,-0.9552097320556641,0.9995419979095459
1684592004127935200,0.519935302734375,-1.782693862915039,-1.1174654960632324,0.37132930755615234
1684592004144806100,0.53680615234375,-0.39328527450561523,-1.3373692035675049,-0.3784923553466797
1684592004161679000,0.55367919921875,0.9373378753662109,-1.4772398471832275,-0.5616157054901123
1684592004178552300,0.57055224609375,0.4540443420410156,-1.7896819114685059,-0.17646169662475586
1684592004195425300,0.58742529296875,-0.5484542846679688,-2.4384336471557617,-0.4850153923034668
1684592004212298500,0.604298583984375,-1.1857995986938477,-2.2072713375091553,-0.6195745468139648
1684592004229171700,0.621171630859375,-1.995549201965332,-2.382521390914917,-0.9251093864440918
1684592004246044200,0.638044189453125,-0.28126001358032227,-2.599252700805664,-0.7505040168762207
1684592004262919400,0.65491943359375,2.168086051940918,-3.494086742401123,-0.49370336532592773
1684592004279779800,0.67177978515625,6.058040618896484,-2.4899230003356934,0.12008523941040039
1684592004296664600,0.68866455078125,5.486360549926758,-0.6782681941986084,-0.40361499786376953
1684592004313537500,0.70553759765625,0.45168113708496094,-0.6522660255432129,-0.7307894229888916
1684592004330400500,0.722400390625,1.131453514099121,-3.4961116313934326,-2.1296513080596924
1684592004347273500,0.7392734375,1.784255027770996,-4.395349979400635,-0.8329744338989258
1684592004364157400,0.756157470703125,-0.3788566589355469,-3.356290578842163,-1.096761703491211
1684592004381030400,0.773030517578125,-1.4326090812683105,-2.5744776725769043,-0.9659140110015869
1684592004397901300,0.7899013671875,-1.5643601417541504,-2.754525899887085,-0.40262937545776367
1684592004414779600,0.806779541015625,-1.1673164367675781,-3.4611833095550537,0.2600431442260742
1684592004431647500,0.8236474609375,-1.5347695350646973,-4.547157287597656,-0.9087986946105957
1684592004448525800,0.84052587890625,-0.702906608581543,-4.242514610290527,-1.9138145446777344
1684592004465396200,0.857396240234375,-0.6809711456298828,-3.152358293533325,-2.336702346801758
1684592004482269400,0.87426953125,-0.9425392150878906,-2.812777519226074,-1.4431524276733398
1684592004499143000,0.891142822265625,-1.3695244789123535,-2.829411029815674,-0.8433284759521484
1684592004516016000,0.90801611328125,-1.1315345764160156,-3.1749749183654785,-0.764704704284668
1684592004532889300,0.924889404296875,-0.874122142791748,-3.4285247325897217,-1.7751879692077637
1684592004549762600,0.941762451171875,-0.624173641204834,-2.9603772163391113,-1.727555274963379
1684592004566632700,0.9586328125,-0.18134737014770508,-3.1519906520843506,-1.771033763885498
1684592004583511000,0.975510986328125,0.5621929168701172,-3.3768577575683594,-1.0228080749511719
1684592004600388600,0.992388671875,0.7804594039916992,-3.083644151687622,-0.2321925163269043
1684592004617255200,1.009255126953125,0.8013620376586914,-2.5787534713745117,-0.37741851806640625
1684592004634128400,1.02612841796875,0.737846851348877,-1.662003993988037,-0.13983154296875
1684592004651001600,1.043001708984375,0.4627704620361328,-1.3226925134658813,-0.14757394790649414
1684592004667861200,1.059861328125,0.474761962890625,-2.0007548332214355,-0.24613189697265625
1684592004684747500,1.07674755859375,0.5277996063232422,-2.4086976051330566,-0.043109893798828125
1684592004701610800,1.09361083984375,0.5012187957763672,-2.3967199325561523,0.0834503173828125
1684592004718494500,1.110494384765625,0.42764902114868164,-2.3449318408966064,-0.12642335891723633
1684592004735367400,1.127367431640625,0.1742396354675293,-1.5119407176971436,-0.2515387535095215
1684592004752238000,1.144238037109375,-0.14157772064208984,-1.5982714891433716,-0.5325698852539062
1684592004769116700,1.16111669921875,-0.5807580947875977,-2.569171905517578,-0.8219571113586426
1684592004785985500,1.177985595703125,-0.5064678192138672,-2.660835027694702,-0.8746528625488281
1684592004802861300,1.194861328125,-0.032088279724121094,-2.5581226348876953,-0.28740835189819336
1684592004819733500,1.2117333984375,-0.010430335998535156,-2.2607717514038086,0.2923750877380371
1684592004836606700,1.228606689453125,0.23430442810058594,-2.34354305267334,0.5427427291870117
1684592004853480000,1.24547998046875,0.5813536643981934,-2.5523643493652344,0.1494007110595703
1684592004870342400,1.26234228515625,0.27446985244750977,-1.9345990419387817,-0.16665315628051758
1684592004887226400,1.279226318359375,-0.3077363967895508,-1.6277979612350464,-0.5763802528381348
1684592004904099300,1.296099365234375,-0.41687870025634766,-1.15864098072052,-0.5317473411560059
1684592004920973600,1.3129736328125,-0.1515641212463379,-1.2806967496871948,-0.19655895233154297
1684592004937845800,1.329845703125,0.6784782409667969,-1.6324093341827393,-0.30968666076660156
1684592004954714600,1.346714599609375,0.8984990119934082,-1.6625398397445679,-0.19655227661132812
1684592004971592200,1.36359228515625,0.811943531036377,-1.5609371662139893,0.3503580093383789
1684592004988460300,1.380460205078125,0.781674861907959,-1.510878324508667,0.57696533203125
1684592005005337900,1.397337890625,0.9268207550048828,-1.1417614221572876,0.6979660987854004
1684592005022212600,1.414212646484375,0.7259740829467773,-1.0047252178192139,0.8827090263366699
1684592005039084500,1.43108447265625,0.20918798446655273,-0.8651782870292664,1.0166940689086914
1684592005055947500,1.447947509765625,0.26620006561279297,-0.7155394554138184,1.1591081619262695
1684592005072829000,1.464828857421875,0.24419403076171875,-0.7066340446472168,1.170921802520752
1684592005089697800,1.48169775390625,0.6072874069213867,-1.1035096645355225,0.8993697166442871
1684592005106578000,1.498577880859375,0.9743771553039551,-1.025455117225647,0.7518110275268555
1684592005123451000,1.515450927734375,0.9645581245422363,-1.033603549003601,0.656224250793457
1684592005140323800,1.53232373046875,1.0691180229187012,-1.0686964988708496,0.6331572532653809
1684592005157197000,1.549197021484375,0.9133696556091309,-1.1681885719299316,0.4561600685119629
1684592005174070800,1.56607080078125,0.8644137382507324,-1.4754050970077515,0.2290635108947754
1684592005190943700,1.58294384765625,0.8202118873596191,-1.5544813871383667,0.18427515029907227
1684592005207817000,1.59981689453125,0.6316266059875488,-1.859922170639038,-0.13260316848754883
1684592005224690400,1.6166904296875,0.42502355575561523,-1.8786298036575317,-0.33065032958984375
1684592005241558300,1.633558349609375,0.4479670524597168,-2.0990850925445557,-0.43005895614624023
1684592005258425600,1.650425537109375,0.7175717353820801,-2.434394598007202,-0.5089468955993652
1684592005275309300,1.667309326171875,1.3697476387023926,-2.856898307800293,-0.7873549461364746
1684592005292182800,1.684182861328125,1.690351963043213,-3.1410601139068604,-0.9375052452087402
1684592005309051400,1.701051513671875,1.9002785682678223,-3.3352584838867188,-0.9171581268310547
1684592005325929500,1.717929443359375,1.8631939888000488,-3.4084086418151855,-0.18076372146606445
1684592005342800100,1.734800048828125,1.269275188446045,-3.3991031646728516,0.49469661712646484
1684592005359677700,1.751677734375,0.760927677154541,-3.4184200763702393,0.897491455078125
1684592005376549000,1.768549072265625,0.4428997039794922,-3.6687235832214355,1.1959657669067383
1684592005393419300,1.785419189453125,0.1238861083984375,-4.0241594314575195,1.3036584854125977
1684592005410307600,1.8023076171875,-0.38831424713134766,-3.6989645957946777,1.3671035766601562
1684592005427168500,1.81916845703125,-0.11237859725952148,-4.101454734802246,1.1431083679199219
1684592005444041500,1.83604150390625,0.3446478843688965,-4.732316970825195,0.7720894813537598
1684592005460914400,1.85291455078125,0.5364718437194824,-4.751490592956543,0.30808353424072266
1684592005477788700,1.86978857421875,0.6673479080200195,-4.741230010986328,0.06565666198730469
1684592005494660900,1.886660888671875,0.6730937957763672,-4.645446300506592,0.21117401123046875
1684592005511534000,1.9035341796875,0.7479472160339355,-4.581372261047363,0.3349418640136719
1684592005528407600,1.920407470703125,0.7690854072570801,-4.510183811187744,0.5655889511108398
1684592005545280800,1.93728076171875,0.9266667366027832,-4.945895195007324,0.8574671745300293
1684592005562154000,1.954154052734375,1.4108672142028809,-5.776094913482666,0.8137021064758301
1684592005579027200,1.971027099609375,0.955040454864502,-5.3739118576049805,1.4877710342407227
1684592005595900200,1.987900146484375,0.31197309494018555,-4.894526481628418,2.004974842071533
1684592005612773000,2.004773193359375,-0.25813722610473633,-4.248084545135498,2.0717215538024902
1684592005629638000,2.021637939453125,-0.40962648391723633,-3.777254581451416,1.7309527397155762
1684592005646519800,2.038519775390625,-0.1564006805419922,-3.970278263092041,1.298518180847168
1684592005663393000,2.05539306640625,0.3475937843322754,-4.316847324371338,1.3615427017211914
1684592005680263700,2.072263671875,0.6232690811157227,-4.156895637512207,1.6813855171203613
1684592005697139500,2.089139404296875,0.723576545715332,-3.674339532852173,2.300370216369629
1684592005714012700,2.1060126953125,0.09995222091674805,-2.89060640335083,2.3079833984375
1684592005730888400,2.122888427734375,-0.025664329528808594,-3.369785785675049,1.756176471710205
1684592005747758800,2.1397587890625,0.5594491958618164,-4.448425769805908,1.2377686500549316
1684592005764632000,2.156632080078125,1.0579137802124023,-4.607471942901611,1.3341012001037598
1684592005781505500,2.173505615234375,0.5596461296081543,-4.022881507873535,2.1378064155578613
1684592005798378500,2.19037841796875,0.5212922096252441,-3.188091278076172,2.390249729156494
1684592005815251700,2.207251708984375,0.6010546684265137,-2.806882858276367,2.0268468856811523
1684592005832125000,2.224125,1.294360637664795,-3.437791347503662,1.567718505859375
1684592005848998000,2.240997802734375,2.0639309883117676,-4.102068901062012,1.1558141708374023
1684592005865868300,2.257868408203125,2.744821071624756,-4.133133888244629,1.622243881225586
1684592005882747100,2.2747470703125,2.854308605194092,-3.5749244689941406,2.725334644317627
1684592005899617500,2.291617431640625,2.171872138977051,-3.7242074012756348,3.4673943519592285
1684592005916495000,2.3084951171875,0.3396892547607422,-3.0798158645629883,3.14530086517334
1684592005933364200,2.3253642578125,-0.2466728687286377,-2.433227062225342,2.375791072845459
1684592005950229500,2.3422294921875,-0.3435828685760498,-2.1348793506622314,2.1739625930786133
1684592005967109000,2.359109130859375,0.014354944229125977,-2.636371374130249,2.462449550628662
1684592005983984400,2.375984375,0.8634779453277588,-2.9733083248138428,3.226551055908203
1684592006000858600,2.392858642578125,1.3547484874725342,-3.565548896789551,3.102084159851074
1684592006017728300,2.409728271484375,2.486255645751953,-4.939583778381348,1.6631731986999512
1684592006034602800,2.426602783203125,2.7003262042999268,-4.829340934753418,0.35618114471435547
1684592006051476200,2.443476318359375,2.705479621887207,-3.992196798324585,-0.48053836822509766
1684592006068349700,2.460349609375,3.1431145668029785,-3.3277385234832764,-0.6569757461547852
1684592006085222400,2.477222412109375,3.1030631065368652,-3.1791043281555176,-1.9202117919921875
1684592006102095600,2.494095703125,3.0382533073425293,-3.3659543991088867,-3.771404266357422
1684592006118969000,2.510968994140625,2.7398324012756348,-3.9712541103363037,-5.646291732788086
1684592006135842300,2.52784228515625,2.9174039363861084,-3.643401622772217,-6.731633186340332
1684592006152715500,2.544715576171875,2.859243631362915,-3.2095437049865723,-7.829122543334961
1684592006169588500,2.56158837890625,3.278674602508545,-1.7128071784973145,-8.225400924682617
1684592006186462000,2.5784619140625,3.540945529937744,0.10746574401855469,-7.158064842224121
1684592006203320300,2.5953203125,3.767317056655884,0.8768947124481201,-5.001585006713867
1684592006220210700,2.612210693359375,3.533862590789795,1.04888916015625,-2.8389577865600586
1684592006237072100,2.629072021484375,2.4365577697753906,1.462543249130249,-1.565291404724121
1684592006253963800,2.6459638671875,1.280958652496338,2.4063704013824463,-0.885136604309082
1684592006270827800,2.662827880859375,0.3563525676727295,2.8454360961914062,-0.4717130661010742
1684592006287701200,2.679701171875,-1.540802240371704,3.418804407119751,0.40077686309814453
1684592006304574000,2.696573974609375,-6.882915496826172,2.9830524921417236,3.0610427856445312
1684592006321447200,2.713447265625,-4.559725761413574,3.0701723098754883,3.79227876663208
1684592006338320100,2.730320068359375,-4.6922783851623535,1.8479642868041992,4.03135347366333
1684592006355191000,2.74719091796875,-4.762923240661621,-1.3714828491210938,3.71881103515625
1684592006372069400,2.7640693359375,0.7232191562652588,-0.8023889064788818,1.2728323936462402
1684592006388939800,2.780939697265625,0.46327757835388184,-1.104079008102417,0.703740119934082
1684592006405813200,2.797813232421875,1.1484854221343994,-0.6064836978912354,0.998136043548584
1684592006422686200,2.814686279296875,2.7135074138641357,-1.646374225616455,1.2306981086730957
1684592006439559400,2.831559326171875,3.377654790878296,-1.6200408935546875,2.227128505706787
1684592006456432400,2.848432373046875,1.704554557800293,-0.5880661010742188,2.8704686164855957
1684592006473305900,2.865305908203125,0.4206571578979492,-0.256014347076416,3.163540840148926
1684592006490179000,2.882178955078125,-0.028186321258544922,-0.7105941772460938,2.4696245193481445
1684592006507054600,2.8990546875,1.7485065460205078,-3.4928741455078125,6.322205543518066
1684592006523923000,2.9159228515625,2.8497843742370605,-5.772891998291016,7.530818462371826
1684592006540798700,2.932798828125,1.3703827857971191,-6.583536148071289,7.575355052947998
1684592006557671700,2.949671630859375,-0.8320398330688477,-7.171945571899414,6.086165904998779
1684592006574545000,2.966544921875,-2.0043232440948486,-4.406464576721191,5.243247032165527
1684592006591418400,2.98341845703125,-0.7147166728973389,-5.386098384857178,0.7614283561706543
1684592006608291300,3.000291259765625,-3.506340742111206,-9.25490951538086,1.0769386291503906
1684592006625164500,3.01716455078125,2.0540242195129395,-6.391300201416016,1.1955742835998535
1684592006642027000,3.034027099609375,0.818885087966919,-1.4640555381774902,-0.8148322105407715
1684592006658924300,3.05092431640625,-0.9310319423675537,-2.6339640617370605,-0.8249387741088867
1684592006675784000,3.067783935546875,-1.3031814098358154,-5.712047100067139,0.707305908203125
1684592006692657200,3.0846572265625,1.7764872312545776,-5.15581750869751,1.2131452560424805
1684592006709530600,3.101530517578125,1.659360647201538,-3.236182689666748,0.4062819480895996
1684592006726402000,3.118402099609375,0.03867173194885254,-1.5595011711120605,-0.286893367767334
1684592006743275500,3.135275634765625,-0.37448859214782715,-1.1511850357055664,-0.20965051651000977
1684592006760153000,3.152153076171875,0.7643067836761475,-0.4829230308532715,-0.3384580612182617
1684592006777023000,3.16902294921875,0.3259096145629883,0.5510826110839844,-0.8581066131591797
1684592006793908200,3.185908203125,-0.5635879039764404,0.49311017990112305,-0.49575042724609375
1684592006810769400,3.202769287109375,-0.5048923492431641,1.2262153625488281,1.0052785873413086
1684592006827643000,3.219642822265625,0.6395699977874756,0.7709789276123047,0.9708595275878906
1684592006844516000,3.23651611328125,1.8222843408584595,0.15296554565429688,2.4248170852661133
1684592006861389000,3.25338916015625,2.4690098762512207,0.1977238655090332,4.184865951538086
1684592006878262300,3.27026220703125,3.2354543209075928,0.9081845283508301,5.1503520011901855
1684592006895135500,3.287135498046875,2.7590065002441406,1.3157100677490234,3.9672741889953613
1684592006912008400,3.304008544921875,2.9438562393188477,2.2527060508728027,2.7746219635009766
1684592006928870000,3.320869873046875,3.403259754180908,3.2462916374206543,3.0643835067749023
1684592006945748700,3.337748779296875,3.909316062927246,4.375294208526611,3.4438724517822266
1684592006962628400,3.35462841796875,3.4574527740478516,5.415297985076904,3.470649480819702
1684592006979501600,3.37150146484375,3.536996841430664,4.246633529663086,2.2309861183166504
1684592006996364300,3.3883642578125,3.7135889530181885,-0.5724139213562012,-0.027569293975830078
1684592007013237200,3.4052373046875,3.465552806854248,-7.71248722076416,-2.2132821083068848
1684592007030126800,3.422126953125,2.46954345703125,-15.291027069091797,-2.0830869674682617
1684592007046994200,3.438994140625,0.1713883876800537,-17.335250854492188,1.913785457611084
1684592007063867100,3.4558671875,-1.9933843612670898,-13.198223114013672,5.307880401611328
1684592007080737300,3.4727373046875,0.6237050294876099,-3.371034622192383,7.351744174957275
1684592007097617200,3.4896171875,11.816518783569336,3.879887580871582,6.11383056640625
1684592007114487000,3.506487060546875,-0.06570029258728027,0.8708934783935547,6.692196369171143
1684592007131360000,3.523360107421875,-14.495753288269043,-0.7290410995483398,5.838833808898926
1684592007148233000,3.54023291015625,-8.902830123901367,0.0893564224243164,4.029433250427246
1684592007165106200,3.557106201171875,0.09074866771697998,-0.9170131683349609,3.0082192420959473
1684592007181979600,3.573979736328125,2.2185397148132324,-1.4209308624267578,1.7604715824127197
1684592007198852900,3.590852783203125,3.100191593170166,-1.9461345672607422,1.2925127744674683
1684592007215726000,3.60772607421875,3.9851789474487305,-1.5022296905517578,1.4530291557312012
1684592007232599300,3.624599365234375,3.8325016498565674,-0.8575019836425781,1.9845706224441528
1684592007249472300,3.64147216796875,3.9994258880615234,-0.2950592041015625,1.9094053506851196
1684592007266345200,3.65834521484375,4.031311988830566,-0.2436962127685547,1.972231149673462
1684592007283218400,3.675218505859375,2.8887338638305664,-0.5661401748657227,2.214587450027466
1684592007300092000,3.692091796875,1.1887503862380981,-0.7532958984375,2.18890118598938
1684592007316965000,3.708965087890625,0.18751788139343262,-1.15313720703125,2.243335723876953
1684592007333838300,3.72583837890625,0.4495121240615845,-1.4161052703857422,2.034796953201294
1684592007350715100,3.742715087890625,1.490828275680542,-1.196242332458496,1.9059759378433228
1684592007367584500,3.75958447265625,1.591153621673584,-0.9999332427978516,1.408352017402649
1684592007384447700,3.77644775390625,2.7174525260925293,-0.3828887939453125,-0.45885705947875977
1684592007401324500,3.793324462890625,3.0252275466918945,-0.14595508575439453,-1.8349082469940186
1684592007418204200,3.8102041015625,2.5990078449249268,-0.07042789459228516,-0.909360408782959
1684592007435080000,3.827079833984375,2.1164391040802,1.1759777069091797,1.2028629779815674
1684592007451951400,3.843951416015625,2.426438808441162,1.9272122383117676,2.883298635482788
1684592007468820500,3.860820556640625,2.37467098236084,1.4076972007751465,3.9094038009643555
1684592007485696800,3.87769677734375,1.9566799402236938,-0.2751884460449219,4.373264312744141
1684592007502570000,3.894570068359375,1.3611048460006714,-1.1550054550170898,3.8760881423950195
1684592007519443200,3.911443115234375,0.9049586057662964,-1.2905654907226562,3.1928794384002686
1684592007536316700,3.928316650390625,0.5863285064697266,-1.4710302352905273,2.77107310295105
1684592007553189600,3.945189697265625,0.6331191062927246,-1.8496618270874023,2.363931179046631
1684592007570066400,3.96206640625,1.5508887767791748,-2.221438407897949,1.865587830543518
1684592007586935800,3.978935791015625,2.5890755653381348,-1.7938909530639648,1.3812322616577148
1684592007603809000,3.99580908203125,2.823525905609131,-0.664703369140625,0.806657075881958
1684592007620682200,4.01268212890625,2.4188220500946045,0.30050086975097656,0.3658638000488281
1684592007637545000,4.029544921875,1.62083899974823,0.8598299026489258,-0.0017902851104736328
1684592007654429000,4.046428955078125,1.5039732456207275,0.7901401519775391,-0.10384702682495117
1684592007671302000,4.063302001953125,0.9842920303344727,0.4418964385986328,-0.2824385166168213
1684592007688175000,4.080175048828125,-0.7552012205123901,0.05330371856689453,-0.8628981113433838
1684592007705048000,4.097048095703125,-2.475008726119995,-0.6401453018188477,-1.5518980026245117
1684592007721910800,4.113910888671875,-2.341153860092163,-1.452193260192871,-1.7955522537231445
1684592007738794500,4.13079443359375,-1.6013075113296509,-1.823643684387207,-1.231311321258545
1684592007755673600,4.147673583984375,-0.9313343167304993,-1.5672321319580078,0.16006708145141602
1684592007772541000,4.164541015625,-0.05791662633419037,-0.430938720703125,0.6442959308624268
1684592007789414400,4.181414306640625,0.9200848937034607,0.27305126190185547,0.5889086723327637
1684592007806286800,4.198286865234375,1.4462916851043701,0.1437225341796875,0.6934185028076172
1684592007823161300,4.215161376953125,1.6854133605957031,0.18114757537841797,0.6796481609344482
1684592007840033500,4.232033447265625,1.5680298805236816,0.21267127990722656,0.694730281829834
1684592007856906800,4.24890673828125,1.5829923152923584,0.203369140625,0.7499880790710449
1684592007873780200,4.2657802734375,1.7092547416687012,0.21224117279052734,0.7947485446929932
1684592007890653200,4.282653076171875,1.7404370307922363,-0.009198188781738281,1.064134120941162
1684592007907526400,4.2995263671875,1.7399747371673584,-0.24384593963623047,1.4109153747558594
1684592007924399600,4.316399658203125,1.5478541851043701,-0.1827096939086914,1.5645763874053955
1684592007941281800,4.33328173828125,1.356015682220459,-0.1531972885131836,1.5683963298797607
1684592007958145800,4.350145751953125,1.3410536050796509,-0.24857807159423828,1.4646852016448975
1684592007975019000,4.36701904296875,1.5614821910858154,-0.4314432144165039,1.2457842826843262
1684592007991892500,4.383892578125,1.665323257446289,-0.4622774124145508,0.8731606006622314
1684592008008763000,4.400762939453125,1.6127638816833496,-0.49454212188720703,0.5505855083465576
1684592008025642800,4.417642822265625,1.4888744354248047,-0.5148611068725586,0.34851813316345215
1684592008042507800,4.4345078125,1.2877087593078613,-0.44534778594970703,0.23413372039794922
1684592008059387600,4.4513876953125,1.0703787803649902,-0.2431488037109375,0.17580461502075195
1684592008076258000,4.468258056640625,0.9500659108161926,-0.05811786651611328,0.2504730224609375
1684592008093131300,4.48513134765625,0.95502769947052,0.06683063507080078,0.3266785144805908
1684592008110005000,4.5020048828125,0.8238486051559448,-0.020969390869140625,0.5554976463317871
1684592008126878000,4.5188779296875,0.7208424210548401,-0.08481979370117188,0.6241564750671387
1684592008143751000,4.5357509765625,0.6465884447097778,-0.17383956909179688,0.6721532344818115
1684592008160624400,4.552624267578125,0.6843738555908203,-0.21188735961914062,0.707329273223877
1684592008177497600,4.56949755859375,0.700605034828186,-0.28597545623779297,0.8829784393310547
1684592008194370300,4.586370361328125,0.6391412019729614,-0.33222103118896484,0.9690561294555664
1684592008211243800,4.603243896484375,0.4349195957183838,-0.1867961883544922,1.0091664791107178
1684592008228117000,4.620116943359375,0.2986907362937927,-0.1317157745361328,1.0364954471588135
1684592008244990200,4.636990234375,0.3295273780822754,-0.13177490234375,0.9808642864227295
1684592008261863400,4.653863525390625,0.22450073063373566,-0.13785076141357422,0.9917011260986328
1684592008278733000,4.670733154296875,0.031205251812934875,-0.2321910858154297,0.8903307914733887
1684592008295598600,4.6875986328125,-0.24546200037002563,-0.16166210174560547,0.6187403202056885
1684592008312482800,4.70448291015625,-0.3092375695705414,0.18719005584716797,0.2268848419189453
1684592008329356000,4.72135595703125,-0.13593555986881256,0.2727546691894531,-0.0675041675567627
1684592008346226700,4.738226806640625,-0.018378939479589462,0.14536285400390625,-0.17444586753845215
1684592008363102500,4.7551025390625,-0.10125958174467087,0.10028457641601562,-0.02414870262145996
1684592008379979800,4.771979736328125,-0.09406551718711853,0.29784107208251953,0.07234883308410645
1684592008396846300,4.788846435546875,0.06399368494749069,0.6404848098754883,-0.1416311264038086
1684592008413723000,4.805722900390625,0.11538821458816528,0.8476390838623047,-0.44905519485473633
1684592008430595300,4.82259521484375,0.36989861726760864,1.077789306640625,-0.8896331787109375
1684592008447468300,4.83946826171875,0.5807509422302246,0.8844308853149414,-1.1481304168701172
1684592008464341500,4.856341552734375,0.43140020966529846,0.7047510147094727,-1.2785134315490723
1684592008481214700,4.873214599609375,0.5254825353622437,0.8096408843994141,-1.6050074100494385
1684592008498088000,4.890087890625,1.5224968194961548,0.0716848373413086,-1.9809446334838867
1684592008514961200,4.906961181640625,2.4418113231658936,-1.8708314895629883,-2.258211135864258
1684592008531834400,4.92383447265625,1.6096187829971313,-3.4419212341308594,-2.660930633544922
1684592008548707300,4.940707275390625,0.020173726603388786,-4.243768692016602,-3.029268264770508
1684592008565580300,4.957580322265625,-0.321593701839447,-4.344342231750488,-2.3329522609710693
1684592008582453800,4.974453857421875,-0.3456738293170929,-3.083831787109375,-0.6045012474060059
1684592008599327000,4.991326904296875,-2.0850563049316406,-2.4476423263549805,0.40319371223449707
1684592008616200200,5.0082001953125,-5.169848918914795,-2.938718795776367,0.8901762962341309
1684592008633073200,5.0250732421875,-3.944948673248291,-2.422551155090332,0.6384515762329102
1684592008649936000,5.041935791015625,-0.3356507420539856,-1.136758804321289,0.5611567497253418
1684592008666812700,5.058812744140625,1.9346882104873657,-0.09100151062011719,0.5291733741760254
1684592008683692800,5.07569287109375,2.6716620922088623,0.6804208755493164,0.5660653114318848
1684592008700566300,5.092566162109375,2.0570268630981445,0.4326000213623047,0.2727844715118408
1684592008717438500,5.1094384765625,1.7313638925552368,-0.4737529754638672,-0.10982131958007812
1684592008734311700,5.126311767578125,2.9054765701293945,-1.3651542663574219,-0.22926926612854004
1684592008751187500,5.1431875,5.239621639251709,-1.9550065994262695,-0.22581243515014648
1684592008768058600,5.16005859375,6.016689300537109,-1.9449310302734375,-0.09690046310424805
1684592008784931800,5.176931884765625,5.577655792236328,-1.5499048233032227,0.08118391036987305
1684592008801805000,5.19380517578125,4.359899044036865,-0.7406377792358398,0.23416399955749512
1684592008818678300,5.21067822265625,3.502112865447998,-0.17200088500976562,0.4767802953720093
1684592008835551500,5.227551513671875,3.108952283859253,-0.058261871337890625,0.6609369516372681
1684592008852424700,5.2444248046875,3.593540906906128,-0.011339187622070312,0.7167048454284668
1684592008869297700,5.261297607421875,3.8856875896453857,-0.00379180908203125,0.7266726493835449
1684592008886168600,5.27816845703125,4.059030055999756,0.23004531860351562,0.7232199907302856
1684592008903046700,5.295046630859375,4.117058753967285,0.23196125030517578,0.8234228491783142
1684592008919917000,5.3119169921875,4.1019392013549805,0.5054702758789062,1.2621179819107056
1684592008936790800,5.328790771484375,4.2935686111450195,1.0044941902160645,2.063361644744873
1684592008953663700,5.345663818359375,4.307222366333008,1.5061864852905273,2.5957045555114746
1684592008970537000,5.362536865234375,4.149875164031982,1.9829144477844238,2.940013885498047
1684592008987410000,5.379409912109375,3.990116596221924,2.233797550201416,3.051520347595215
1684592009004283100,5.396283203125,3.628452777862549,2.1827282905578613,3.0356597900390625
1684592009021156400,5.41315625,2.8897645473480225,1.5741548538208008,2.838393211364746
1684592009038029600,5.430029541015625,1.6272156238555908,0.634544849395752,2.0096776485443115
1684592009054903000,5.446903076171875,-0.10347890853881836,-0.2917804718017578,0.8235396146774292
1684592009071776300,5.4637763671875,-1.454881191253662,-1.726358413696289,0.10154175758361816
1684592009088649200,5.480649169921875,-2.6630959510803223,-3.452850341796875,-0.6977924108505249
1684592009105522400,5.4975224609375,-3.8604226112365723,-4.568803787231445,-1.8910183906555176
1684592009122395400,5.5143955078125,-3.5287156105041504,-3.801447868347168,-2.246145248413086
1684592009139268600,5.5312685546875,-0.988762378692627,-1.8452997207641602,-0.9056253433227539
1684592009156141800,5.548141845703125,1.3240654468536377,-0.051840782165527344,0.7132977247238159
1684592009173015000,5.56501513671875,1.6106317043304443,1.5616230964660645,1.5617274045944214
1684592009189888500,5.581888427734375,1.214770793914795,2.3736658096313477,1.6028732061386108
1684592009206762000,5.598761962890625,0.36896419525146484,0.6278190612792969,1.236671805381775
1684592009223640800,5.615640869140625,0.22534561157226562,-4.025758743286133,-0.1193007230758667
1684592009240508000,5.6325078125,1.3816921710968018,-8.26047420501709,-0.5698699951171875
1684592009257380900,5.649380859375,0.7864718437194824,-11.0009765625,-0.9177248477935791
1684592009274254000,5.666254150390625,1.0467770099639893,-5.778619766235352,-1.0752506256103516
1684592009291127800,5.6831279296875,2.098109722137451,0.332061767578125,-0.35182225704193115
1684592009308000300,5.700000244140625,3.7907278537750244,3.274660587310791,0.9709287285804749
1684592009324874000,5.7168740234375,4.371199131011963,5.307339191436768,1.4710192680358887
1684592009341746700,5.73374658203125,4.8478569984436035,6.126225471496582,1.73115873336792
1684592009358620000,5.750619873046875,5.616120338439941,5.020427703857422,1.843245029449463
1684592009375493000,5.7674931640625,6.57231330871582,2.0428366661071777,1.3959124088287354
1684592009392366300,5.784366455078125,7.64317512512207,-2.3038063049316406,0.7684743404388428
1684592009409239800,5.80123974609375,6.9284234046936035,-5.368210792541504,0.3569296598434448
1684592009426111000,5.818111083984375,5.397790431976318,-5.462602615356445,-0.16829943656921387
1684592009442988000,5.834988037109375,-1.4590919017791748,-1.5479154586791992,-1.2556110620498657
1684592009459859500,5.851859375,0.9319677352905273,0.722834587097168,-0.775738000869751
1684592009476732200,5.868732177734375,1.4921146631240845,2.83412504196167,-0.8437513113021851
1684592009493605400,5.88560546875,0.7110406160354614,2.856698989868164,-2.0480074882507324
1684592009510465500,5.902465576171875,1.2215864658355713,1.3100252151489258,-2.0383121967315674
1684592009527354600,5.919354736328125,-0.4387267827987671,-0.08227920532226562,-1.5689215660095215
1684592009544225000,5.93622509765625,-0.6624083518981934,-0.5347709655761719,-1.279752254486084
1684592009561098000,5.953097900390625,1.5718824863433838,-0.14130496978759766,-0.7868978977203369
1684592009577958700,5.969958740234375,2.195302724838257,0.6363992691040039,-0.44336235523223877
1684592009594844700,5.9868447265625,1.890149712562561,1.3385868072509766,-0.1732339859008789
1684592009611718000,6.0037177734375,1.565076470375061,1.3539361953735352,0.2428816556930542
1684592009628590800,6.0205908203125,1.21368408203125,1.0498037338256836,0.4039653539657593
1684592009645464300,6.03746435546875,0.7291260361671448,0.3962116241455078,0.5090959072113037
1684592009662337500,6.054337646484375,0.08232468366622925,-0.3187417984008789,0.5359625816345215
1684592009679210800,6.071210693359375,-0.23843780159950256,-0.6550006866455078,0.5044889450073242
1684592009696073500,6.088073486328125,0.13621339201927185,0.1029195785522461,-0.0831601619720459
1684592009712957000,6.10495703125,0.7027204036712646,0.729374885559082,-1.1484811305999756
1684592009729830100,6.121830078125,1.171493649482727,0.2792634963989258,-1.6341969966888428
1684592009746703000,6.138703125,0.12648093700408936,-0.6389226913452148,-1.8112151622772217
1684592009763576300,6.155576416015625,-1.8750953674316406,-1.2329978942871094,-2.517564296722412
1684592009780449500,6.172449462890625,-0.8865902423858643,-1.437392234802246,-3.08677077293396
1684592009797323000,6.189322998046875,1.1674013137817383,-1.3930482864379883,-3.309492349624634
1684592009814196200,6.2061962890625,-0.19281452894210815,-2.991558074951172,-4.120988368988037
1684592009831069400,6.2230693359375,-2.980367660522461,-5.013613700866699,-5.037248611450195
1684592009847942400,6.2399423828125,0.992774248123169,-4.055874824523926,-4.3967719078063965
1684592009864815400,6.2568154296875,3.031834125518799,-2.2539148330688477,-2.6391401290893555
1684592009881689000,6.273689208984375,1.6812795400619507,-1.0070133209228516,-0.8178756237030029
1684592009898562000,6.29056201171875,-0.7182332277297974,-0.9174900054931641,0.4058370590209961
1684592009915435300,6.307435302734375,-0.5363309383392334,-1.416172981262207,0.6543170213699341
1684592009932308500,6.32430859375,1.6832003593444824,-1.5273847579956055,0.3231062889099121
1684592009949171000,6.3411708984375,3.120116949081421,-2.108766555786133,0.29866957664489746
1684592009966051300,6.35805126953125,3.8742129802703857,-2.7463388442993164,0.6842008829116821
1684592009982920700,6.374920654296875,4.195837020874023,-2.6817731857299805,1.2066301107406616
1684592009999801300,6.39180126953125,4.570278644561768,-2.193293571472168,1.779217004776001
1684592010016674000,6.408674072265625,4.156834125518799,-1.948160171508789,2.427753448486328
1684592010033547300,6.42554736328125,5.210192680358887,-1.1650962829589844,2.9224331378936768
1684592010050410200,6.44241015625,5.307050704956055,-0.09825611114501953,3.0434865951538086
1684592010067293700,6.459293701171875,4.562605381011963,1.057966709136963,2.670440435409546
1684592010084167000,6.4761669921875,3.725886106491089,1.9469947814941406,2.1424906253814697
1684592010101035800,6.493035888671875,2.4498748779296875,2.361515998840332,1.6241745948791504
1684592010117900500,6.509900634765625,1.9460384845733643,2.1712331771850586,1.2963824272155762
1684592010134784000,6.526783935546875,2.7846879959106445,2.023139476776123,1.1994872093200684
1684592010151649300,6.543649169921875,3.9063405990600586,2.2897305488586426,1.2169326543807983
1684592010168530400,6.560530517578125,4.584804058074951,2.7672834396362305,1.215094804763794
1684592010185409000,6.577408935546875,4.919877529144287,2.7932639122009277,1.2680087089538574
1684592010202279400,6.594279541015625,4.643208026885986,1.9872221946716309,1.7466787099838257
1684592010219152600,6.611152587890625,3.1191530227661133,0.9246158599853516,2.2469379901885986
1684592010236025900,6.62802587890625,0.030092716217041016,-0.4906940460205078,2.205887794494629
1684592010252899000,6.644899169921875,-3.638180732727051,-1.821721076965332,0.8198375701904297
1684592010269772000,6.66177197265625,-4.680613040924072,-2.7380380630493164,-0.9990247488021851
1684592010286645200,6.678645263671875,-3.260193347930908,-2.9489612579345703,-2.5499391555786133
1684592010303518500,6.6955185546875,-1.4658796787261963,-1.9692468643188477,-3.5052051544189453
1684592010320391700,6.7123916015625,0.12967419624328613,-0.3877220153808594,-3.25335431098938
1684592010337265000,6.729264892578125,0.6876583099365234,-0.018304824829101562,-1.2098822593688965
1684592010354138000,6.74613818359375,1.3105552196502686,0.009764671325683594,1.39398193359375
1684592010371011000,6.763010986328125,1.297851324081421,-1.854447364807129,2.6201329231262207
1684592010387884300,6.77988427734375,1.888422966003418,-3.875120162963867,2.034975528717041
1684592010404757500,6.796757568359375,2.228181838989258,-5.540162086486816,2.1611807346343994
1684592010421631000,6.813630859375,2.68356990814209,-5.6716413497924805,3.22025465965271
1684592010438493200,6.8304931640625,3.939072370529175,-4.106395721435547,4.1388936042785645
1684592010455377200,6.847377197265625,3.917703628540039,-1.6266136169433594,3.1742000579833984
1684592010472250000,6.86425,-0.08984732627868652,0.48458003997802734,-0.0890493392944336
1684592010489123300,6.881123291015625,-3.123197555541992,1.8439984321594238,-0.785355806350708
1684592010505993000,6.897992919921875,-0.8568036556243896,2.1352691650390625,-0.46289682388305664
1684592010522873600,6.91487353515625,4.262989521026611,1.9929256439208984,-0.05818212032318115
1684592010539742700,6.93174267578125,5.9847822189331055,2.2393674850463867,-0.2525959014892578
1684592010556616400,6.948616455078125,5.8676347732543945,0.8525123596191406,-0.7141165733337402
1684592010573489400,6.965489501953125,5.208364963531494,-1.039459228515625,-0.8704032897949219
1684592010590349600,6.982349609375,4.261505603790283,-1.9920682907104492,-0.7287784814834595
1684592010607238100,6.999238037109375,1.9309437274932861,-1.441507339477539,-0.8311316967010498
1684592010624108800,7.01610888671875,1.1258946657180786,0.0102691650390625,-0.7979636192321777
1684592010640982300,7.032982177734375,2.614837169647217,0.5227527618408203,-0.4490172863006592
1684592010657855500,7.04985546875,2.6010332107543945,0.7261171340942383,-0.46992945671081543
1684592010674728700,7.066728759765625,1.9932866096496582,0.6792488098144531,-0.6217443943023682
1684592010691591000,7.0835908203125,1.791558027267456,0.11458873748779297,-0.33025145530700684
1684592010708475000,7.100474853515625,0.647339940071106,-0.09176158905029297,0.07233548164367676
1684592010725347800,7.117347900390625,0.016038835048675537,0.1349630355834961,0.05495476722717285
1684592010742221300,7.13422119140625,1.0179041624069214,0.1981973648071289,-0.09711790084838867
1684592010759094500,7.151094482421875,1.124398946762085,0.07512283325195312,-0.15128636360168457
1684592010775967700,7.1679677734375,0.48582589626312256,0.007874488830566406,-0.06294560432434082
1684592010792840400,7.18484033203125,0.6052611470222473,0.16258525848388672,0.05006074905395508
1684592010809714000,7.2017138671875,1.1603586673736572,0.3078012466430664,0.19569182395935059
1684592010826587100,7.218587158203125,1.533440351486206,0.28958797454833984,0.35990285873413086
1684592010843460400,7.23546044921875,1.511778473854065,0.19394207000732422,0.4955868721008301
1684592010860333600,7.25233349609375,1.3942556381225586,0.12811946868896484,0.5082805156707764
1684592010877206800,7.269206787109375,1.5672749280929565,0.09613227844238281,0.4302561283111572
1684592010894079500,7.28607958984375,1.8029365539550781,0.054572105407714844,0.36579298973083496
1684592010910953000,7.302952880859375,1.8119655847549438,0.06425285339355469,0.3178884983062744
1684592010927823600,7.31982373046875,1.6431005001068115,0.14131641387939453,0.18965530395507812
1684592010944702200,7.3367021484375,1.5420469045639038,0.07973003387451172,-0.05994820594787598
1684592010961572600,7.353572509765625,1.4949969053268433,-0.0070438385009765625,-0.2864086627960205
1684592010978445800,7.37044580078125,1.460145354270935,-0.0197906494140625,-0.4210326671600342
1684592010995319000,7.387319091796875,1.3830616474151611,-0.0833578109741211,-0.48189735412597656
1684592011012192000,7.40419189453125,1.0971671342849731,-0.016706466674804688,-0.5703608989715576
1684592011029065200,7.421065185546875,0.8513436913490295,0.06124401092529297,-0.6966526508331299
1684592011045938400,7.4379384765625,0.7544285655021667,0.16340351104736328,-0.7696723937988281
1684592011062812000,7.45481201171875,0.7320064306259155,0.38602256774902344,-0.7981622219085693
1684592011079685000,7.47168505859375,0.6233260631561279,0.5434694290161133,-0.838148832321167
1684592011096558300,7.488558349609375,0.6500203013420105,0.32814598083496094,-0.9475228786468506
1684592011113431000,7.50543115234375,0.5830899477005005,0.026334762573242188,-1.1324889659881592
1684592011130298600,7.522298583984375,0.48733222484588623,-0.05765247344970703,-1.3127038478851318
1684592011147177700,7.539177734375,0.8911529779434204,-0.2169170379638672,-1.4058406352996826
1684592011164050700,7.55605078125,1.1552908420562744,-0.6566524505615234,-1.5344369411468506
1684592011180924200,7.572924072265625,0.7048707604408264,-1.3111896514892578,-1.8915164470672607
1684592011197797000,7.589797119140625,-0.6933468580245972,-1.8264780044555664,-2.348487377166748
1684592011214670600,7.606670654296875,-2.23502516746521,-2.8672914505004883,-1.762450933456421
1684592011231543600,7.62354345703125,-2.0104901790618896,-2.824862480163574,-0.19179344177246094
1684592011248417000,7.6404169921875,-0.6513379216194153,-1.5732393264770508,0.7199513912200928
1684592011265289700,7.657289794921875,-0.075935959815979,-0.8293571472167969,0.7932496070861816
1684592011282161700,7.67416162109375,0.6231515407562256,-1.0769214630126953,0.8886768817901611
1684592011299038000,7.691037841796875,0.9802464246749878,-0.9833688735961914,1.1492170095443726
1684592011315909600,7.70790966796875,1.2828634977340698,-0.27500152587890625,1.5383096933364868
1684592011332782600,7.724782470703125,1.9340510368347168,0.10924530029296875,1.8799660205841064
1684592011349656000,7.741656005859375,3.3361411094665527,-0.1767597198486328,1.83270263671875
1684592011366529000,7.758529052734375,4.5668792724609375,-1.0439376831054688,1.607669711112976
1684592011383402200,7.77540234375,4.871201515197754,-2.038015365600586,1.4004896879196167
1684592011400275700,7.792275634765625,4.312393665313721,-2.2143630981445312,1.004581093788147
1684592011417148700,7.809148681640625,2.615835189819336,-1.4881906509399414,0.2508885860443115
1684592011434021600,7.826021728515625,1.227874994277954,-0.7023515701293945,-0.054311513900756836
1684592011450894800,7.842894775390625,1.1392621994018555,-0.0735635757446289,0.29573869705200195
1684592011467768000,7.85976806640625,1.7192916870117188,0.5766086578369141,0.703438401222229
1684592011484641000,7.87664111328125,2.088757038116455,1.097578525543213,0.9332014322280884
1684592011501514500,7.893514404296875,1.9373136758804321,1.2217822074890137,1.0410370826721191
1684592011518388000,7.910387939453125,1.480579137802124,0.7102289199829102,1.433276653289795
1684592011535261000,7.927260986328125,1.2106003761291504,0.0039520263671875,2.2857861518859863
1684592011552134100,7.944134033203125,1.1590137481689453,-0.3841981887817383,2.4870107173919678
1684592011569007400,7.96100732421875,1.0796740055084229,-0.2539100646972656,1.792862892150879
1684592011585877500,7.97787744140625,0.901456356048584,-0.02941131591796875,0.713402509689331
1684592011602756400,7.99475634765625,1.1517181396484375,0.10030841827392578,-0.09433627128601074
1684592011619627000,8.011626953125,1.821495532989502,0.3345937728881836,-0.520160436630249
1684592011636500000,8.0285,2.4593522548675537,0.7952022552490234,-0.4722435474395752
1684592011653373200,8.045373291015625,2.7654454708099365,1.040853500366211,-0.3206906318664551
1684592011670236200,8.062236083984375,2.4727840423583984,1.074470043182373,-0.1510171890258789
1684592011687119400,8.079119384765624,1.9612298011779785,0.7163944244384766,0.024440765380859375
1684592011703992800,8.095992919921875,1.0209712982177734,0.33535099029541016,0.2045285701751709
1684592011720866000,8.112865966796875,0.26734423637390137,0.08084964752197266,0.4501546621322632
1684592011737739300,8.1297392578125,-0.276045560836792,-0.09346389770507812,0.8922704458236694
1684592011754612500,8.146612548828125,-0.28414201736450195,0.0280303955078125,1.2728320360183716
1684592011771485400,8.1634853515625,0.002949953079223633,0.28336238861083984,1.336124062538147
1684592011788358700,8.180358642578126,0.1929161548614502,0.5168571472167969,1.047300934791565
1684592011805231900,8.19723193359375,0.4078397750854492,0.4481220245361328,0.6243373155593872
1684592011822094600,8.214094482421874,0.2182307243347168,0.021083831787109375,0.15505027770996094
1684592011838978300,8.230978271484375,-0.40288591384887695,-0.5216684341430664,-0.34426355361938477
1684592011855851500,8.2478515625,-1.0703520774841309,-1.0195541381835938,-0.7473654747009277
1684592011872724500,8.264724365234375,-1.425499677658081,-1.3604116439819336,-0.9584066867828369
1684592011889598000,8.281597900390626,-1.0918984413146973,-2.2118053436279297,-0.8945841789245605
1684592011906471200,8.29847119140625,-0.34441494941711426,-3.4622764587402344,-0.5020761489868164
1684592011923344000,8.31534375,0.10178685188293457,-2.5342302322387695,0.6514184474945068
1684592011940217300,8.33221728515625,0.7016010284423828,-0.5479593276977539,1.6421540975570679
1684592011957090600,8.349090576171875,1.2583286762237549,0.18949127197265625,1.7954477071762085
1684592011973961000,8.3659609375,1.5948985815048218,0.5716056823730469,1.497251033782959
1684592011990839600,8.382839599609374,1.380765676498413,0.2546663284301758,1.0261796712875366
1684592012007710200,8.399710205078126,0.6198052167892456,-0.3594779968261719,0.8213068246841431
1684592012024583400,8.41658349609375,0.7644213438034058,0.4788169860839844,1.0042451620101929
1684592012041456600,8.43345654296875,1.523280143737793,0.9264621734619141,1.3047257661819458
1684592012058329900,8.450329833984375,1.6676173210144043,0.5574636459350586,1.5983972549438477
1684592012075202800,8.467202880859375,0.713100790977478,-0.30805110931396484,1.4818103313446045
1684592012092076000,8.484075927734375,-0.7008891105651855,-1.2300739288330078,0.7018188238143921
1684592012108949200,8.50094921875,-0.9670673608779907,-1.020798683166504,-0.8091785907745361
1684592012125820400,8.5178203125,0.1382046937942505,-0.6751937866210938,-1.28739595413208
1684592012142700800,8.53470068359375,0.8789130449295044,-0.13021183013916016,-0.9228780269622803
1684592012159565800,8.55156591796875,0.72147536277771,0.36504268646240234,-0.35373735427856445
1684592012176441600,8.568441650390625,0.5846074819564819,0.5333499908447266,0.054239749908447266
1684592012193310200,8.585310302734374,0.9267966747283936,0.2194528579711914,0.3803490400314331
1684592012210188300,8.602188232421875,1.3654730319976807,-0.11162662506103516,0.5305330753326416
1684592012227061800,8.619061767578126,1.4189003705978394,-0.1218719482421875,0.5149170160293579
1684592012243934700,8.635934814453124,1.3648319244384766,-0.07955360412597656,0.5139689445495605
1684592012260808000,8.652807861328125,1.586825966835022,0.008563995361328125,0.48329365253448486
1684592012277681000,8.669680908203125,1.803216814994812,0.199798583984375,0.3438277244567871
1684592012294554400,8.686554443359375,1.9384915828704834,0.4114503860473633,0.2462296485900879
1684592012311427600,8.703427490234375,1.9085304737091064,0.38991355895996094,0.06301021575927734
1684592012328300800,8.72030078125,1.845752477645874,0.29672813415527344,-0.1918346881866455
1684592012345174000,8.737174072265624,1.6782491207122803,0.04050254821777344,-0.3587214946746826
1684592012362047200,8.754047119140624,1.4332575798034668,-0.22126293182373047,-0.5235753059387207
1684592012378920200,8.770920166015625,1.1361299753189087,-0.5516071319580078,-0.5160834789276123
1684592012395793400,8.78779345703125,0.8762769103050232,-0.7330913543701172,-0.38070130348205566
1684592012412666600,8.80466650390625,0.607003927230835,-0.5222816467285156,-0.31461548805236816
1684592012429539800,8.821539794921875,0.5648593902587891,-0.2115335464477539,-0.19148755073547363
1684592012446413000,8.8384130859375,0.7283004522323608,0.14963531494140625,-0.06296849250793457
1684592012463286300,8.855286376953124,0.9264228343963623,0.49092674255371094,0.025264739990234375
1684592012480159500,8.872159423828125,0.9187831878662109,0.6656503677368164,0.12615394592285156
1684592012497032700,8.88903271484375,0.7939584851264954,0.6794576644897461,0.20998787879943848
1684592012513905700,8.90590576171875,0.7625274062156677,0.40816211700439453,0.27032470703125
1684592012530779000,8.92277880859375,0.6391499042510986,0.1633443832397461,0.31241488456726074
1684592012547652000,8.939652099609376,0.4038843512535095,0.059006690979003906,0.4489572048187256
1684592012564525300,8.956525390625,0.16827991604804993,0.05137825012207031,0.5697369575500488
1684592012581398500,8.9733984375,-0.0012382790446281433,0.09400081634521484,0.67624831199646
1684592012598271700,8.990271728515625,-0.03781595826148987,0.18694782257080078,0.7938320636749268
1684592012615144700,9.007144775390625,0.030010849237442017,0.1681652069091797,0.7679426670074463
1684592012632018000,9.024017822265625,-0.13962437212467194,0.22194671630859375,0.4520392417907715
1684592012648891100,9.04089111328125,-0.32085394859313965,0.11842918395996094,-0.03922080993652344
1684592012665764400,9.057764404296876,-0.21176984906196594,-0.06135845184326172,-0.48574209213256836
1684592012682637800,9.074637939453124,-0.016096115112304688,-0.16034793853759766,-0.8324887752532959
1684592012699511000,9.091510986328124,-0.27067357301712036,-0.008258819580078125,-1.0581586360931396
1684592012716383700,9.1083837890625,-0.632138729095459,0.23325824737548828,-1.1934869289398193
1684592012733257200,9.12525732421875,-0.5507444739341736,0.2747516632080078,-1.213836431503296
1684592012750131200,9.142131103515625,-0.30398282408714294,0.2653932571411133,-1.2790179252624512
1684592012767003600,9.159003662109376,-0.4679846167564392,0.22938251495361328,-1.2947359085083008
1684592012783876900,9.175876953125,-0.8476790189743042,0.2567625045776367,-1.456768274307251
1684592012800750000,9.19275,-0.9821276068687439,0.2655010223388672,-1.6892657279968262
1684592012817623000,9.209623046875,-0.8787403702735901,0.5738029479980469,-1.7789580821990967
1684592012834496500,9.22649658203125,-0.37251436710357666,0.7736110687255859,-1.5767087936401367
1684592012851369500,9.243369384765625,0.21111845970153809,0.3109254837036133,-1.8487048149108887
1684592012868232000,9.26023193359375,0.7868782877922058,-0.5071067810058594,-1.7123982906341553
1684592012885115600,9.27711572265625,1.7292733192443848,-1.2888374328613281,-1.6842923164367676
1684592012901989000,9.293989013671874,1.0423303842544556,-2.504140853881836,-2.3027210235595703
1684592012918862300,9.3108623046875,-0.5595411658287048,-3.723933219909668,-3.150724411010742
1684592012935735600,9.327735595703125,-0.34929871559143066,-4.776152610778809,-3.3337666988372803
1684592012952608500,9.3446083984375,0.36884433031082153,-4.333749771118164,-1.6398584842681885
1684592012969481500,9.3614814453125,-1.0310324430465698,-1.9293718338012695,1.1858391761779785
1684592012986355000,9.37835498046875,-0.6109569072723389,0.5574665069580078,2.6818041801452637
1684592013003228200,9.395228271484376,-0.611947238445282,1.1411628723144531,2.5740339756011963
1684592013020101600,9.4121015625,-0.6424946784973145,1.0619134902954102,1.9436367750167847
1684592013036974600,9.428974609375,1.0682523250579834,1.1981687545776367,1.1906245946884155
1684592013053847600,9.44584765625,3.137469530105591,1.4492807388305664,0.3094449043273926
1684592013070721000,9.462720947265625,4.175305366516113,1.097304344177246,-0.07066845893859863
1684592013087594200,9.47959423828125,4.492153167724609,0.3158130645751953,-0.48496222496032715
1684592013104467200,9.49646728515625,4.317346572875977,-1.0892696380615234,-0.7854547500610352
1684592013121340700,9.513340576171874,2.2911481857299805,-2.548633575439453,-1.1128671169281006
1684592013138214000,9.5302138671875,-1.255727767944336,-2.723696708679199,-1.34405517578125
1684592013155086800,9.5470869140625,-0.1304631233215332,-1.4807252883911133,-0.5601468086242676
1684592013171960000,9.5639599609375,2.340014934539795,-0.37539005279541016,-0.05787920951843262
1684592013188833500,9.58083349609375,2.935133457183838,0.5204391479492188,0.34308552742004395
1684592013205706200,9.597706298828125,2.7014899253845215,1.0251154899597168,0.7941347360610962
1684592013222579700,9.614579833984376,2.07961368560791,0.9391355514526367,0.9797613620758057
1684592013239453000,9.631452880859374,1.7441481351852417,0.4911508560180664,1.0995917320251465
1684592013256326100,9.648326171875,2.051365375518799,0.26111888885498047,1.3902183771133423
1684592013273199000,9.66519921875,2.2514843940734863,0.47066593170166016,1.7950340509414673
1684592013290066400,9.68206640625,2.1278066635131836,0.6138095855712891,2.164621353149414
1684592013306933000,9.69893310546875,1.3515706062316895,0.5891914367675781,2.4238786697387695
1684592013323814700,9.715814697265625,0.5643255710601807,0.31793689727783203,2.5557589530944824
1684592013340692000,9.73269189453125,0.3980734348297119,0.04849433898925781,2.434105396270752
1684592013357565200,9.749565185546874,0.7798285484313965,0.4317293167114258,1.6860418319702148
1684592013374438400,9.7664384765625,1.151423454284668,0.9552288055419922,0.8192674517631531
1684592013391311400,9.783311279296875,1.4491643905639648,1.1208419799804688,0.39471638202667236
1684592013408184600,9.8001845703125,1.3663923740386963,1.115602970123291,0.2646876573562622
1684592013425058000,9.81705810546875,1.2018146514892578,1.1165504455566406,0.22790396213531494
1684592013441931300,9.83393115234375,0.9908487796783447,1.1144518852233887,0.14076709747314453
1684592013458804200,9.85080419921875,0.7644011974334717,1.0523028373718262,-0.06477940082550049
1684592013475677200,9.86767724609375,0.36039185523986816,0.7436494827270508,-0.20319950580596924
1684592013492550700,9.884550537109375,-0.22530269622802734,0.17266368865966797,-0.2309023141860962
1684592013509423900,9.901423828125,-1.1539413928985596,-0.5158138275146484,-0.27987706661224365
1684592013526296000,9.918296142578125,-2.2060229778289795,-0.8007287979125977,-0.5276440382003784
1684592013543171000,9.935171142578126,-2.5069754123687744,-0.756591796875,-0.9015036821365356
1684592013560049400,9.95204931640625,-1.820946455001831,-0.8271780014038086,-0.9079431295394897
1684592013576916700,9.968916748046874,-1.4631237983703613,-0.8896503448486328,-0.014814138412475586
1684592013593789700,9.985789794921875,-1.1612608432769775,-0.3979024887084961,0.9149543046951294
1684592013610663000,10.002662841796875,-0.6064028739929199,0.05611991882324219,1.6923307180404663
1684592013627536100,10.0195361328125,0.0676279067993164,0.7722787857055664,1.890026330947876
1684592013644409600,10.03640966796875,0.4668869972229004,0.2751188278198242,1.4666815996170044
1684592013661282300,10.0532822265625,0.36704134941101074,-2.2738962173461914,0.09792172908782959
1684592013678155800,10.07015576171875,-0.04497241973876953,-4.533430099487305,-0.893905758857727
1684592013695029000,10.087029052734374,0.5024721622467041,-5.338071823120117,-0.5394588708877563
1684592013711902200,10.103902099609375,1.9190969467163086,-3.7610340118408203,0.17805171012878418
1684592013728775400,10.120775390625,1.5790643692016602,-1.6832237243652344,0.3621593713760376
1684592013745648400,10.1376484375,-0.1730741262435913,-0.3944129943847656,-0.05667400360107422
1684592013762521300,10.154521240234375,-1.7828562259674072,1.1287918090820312,0.5163006782531738
1684592013779395000,10.17139501953125,-3.285163164138794,2.327207088470459,1.7386871576309204
1684592013796265500,10.188265380859375,-0.9034329652786255,1.898575782775879,1.939176082611084
1684592013813143800,10.205143798828125,3.866539239883423,1.5402750968933105,0.9731576442718506
1684592013830014700,10.2220146484375,5.5708417892456055,1.0877275466918945,0.6820846796035767
1684592013846887700,10.2388876953125,5.315422058105469,0.16291427612304688,0.5790423154830933
1684592013863760600,10.2557607421875,4.228740692138672,-0.4501152038574219,0.612555980682373
1684592013880634000,10.272634033203126,3.434932231903076,-0.4494485855102539,0.6654506921768188
1684592013897507000,10.289507080078126,3.140810966491699,-0.11821746826171875,0.5427207946777344
1684592013914380300,10.30638037109375,2.9875075817108154,0.04380989074707031,0.27451610565185547
1684592013931253500,10.32325341796875,2.665881633758545,0.021938323974609375,0.07621145248413086
1684592013948126700,10.340126708984375,1.8100838661193848,0.03042125701904297,-0.036577463150024414
1684592013965000000,10.357,0.46875715255737305,-0.1048116683959961,-0.2905094623565674
1684592013981873200,10.373873046875,0.3644549548625946,-0.3759422302246094,-0.6030330657958984
1684592013998746000,10.39074609375,0.7100003957748413,-0.1254262924194336,-0.9616472721099854
1684592014015619600,10.40761962890625,-0.3337554931640625,0.3525991439819336,-1.3615484237670898
1684592014032492500,10.424492431640624,-0.45463621616363525,0.2143707275390625,-1.417628526687622
1684592014049365800,10.44136572265625,0.3226783871650696,0.06698131561279297,-1.1954011917114258
1684592014066236400,10.458236328125,-0.3129274249076843,-0.10565853118896484,-0.9651334285736084
1684592014083114800,10.47511474609375,-0.7261462211608887,-0.013702392578125,-0.6735434532165527
1684592014099985200,10.491985107421876,0.24188242852687836,0.2715892791748047,-0.3420593738555908
1684592014116858600,10.508858642578126,1.2441515922546387,0.4949989318847656,-0.05216670036315918
1684592014133731800,10.52573193359375,1.5868648290634155,0.5625858306884766,0.1681520938873291
1684592014150604800,10.542604736328125,1.3353705406188965,0.6570463180541992,0.23639702796936035
1684592014167478300,10.559478271484375,0.8006201982498169,0.6944351196289062,0.1519031524658203
1684592014184351200,10.576351318359375,0.7212735414505005,0.5601482391357422,0.01528620719909668
1684592014201224400,10.593224365234375,1.2687352895736694,0.23521137237548828,-0.12635517120361328
1684592014218098000,10.610097900390626,1.5252251625061035,0.025671005249023438,-0.2695183753967285
1684592014234971100,10.62697119140625,1.172613263130188,0.041045188903808594,-0.4960899353027344
1684592014251839700,10.64383984375,0.5247510075569153,0.16166305541992188,-0.7367048263549805
1684592014268717300,10.66071728515625,0.10677623748779297,0.22684288024902344,-0.6818089485168457
1684592014285590500,10.677590576171875,0.23098811507225037,0.28032875061035156,-0.5941777229309082
1684592014302463700,10.694463623046875,0.21862444281578064,0.43322277069091797,-0.5988755226135254
1684592014319337000,10.7113369140625,-0.13070234656333923,0.5389041900634766,-0.6332569122314453
1684592014336210200,10.728210205078126,-0.5378541350364685,0.4153594970703125,-0.8220815658569336
1684592014353083000,10.745082763671874,-0.8232837915420532,0.10030746459960938,-1.0233218669891357
1684592014369956400,10.761956298828125,-0.7715506553649902,-0.08534812927246094,-1.0783867835998535
1684592014386829600,10.77882958984375,-0.6711326837539673,0.08137798309326172,-1.0437021255493164
1684592014403702800,10.795702880859375,-0.7979533672332764,0.39356231689453125,-1.0848863124847412
1684592014420576000,10.812575927734375,-0.8399117588996887,0.5322227478027344,-1.1459949016571045
1684592014437449200,10.82944921875,-0.5905629396438599,0.632502555847168,-1.3198716640472412
1684592014454322000,10.846322021484376,-0.23845115303993225,0.6751308441162109,-1.472285270690918
1684592014471195400,10.8631953125,-0.04397624731063843,0.6492729187011719,-1.504631757736206
1684592014488066600,10.880066650390624,0.06001168489456177,0.6647577285766602,-1.597224235534668
1684592014504943900,10.89694384765625,-0.23218750953674316,0.3314056396484375,-1.635908603668213
1684592014521815000,10.91381494140625,-0.4422370195388794,0.09786415100097656,-1.5469560623168945
1684592014538688300,10.930688232421875,0.2434462010860443,-0.17197608947753906,-1.2272977828979492
1684592014555561500,10.9475615234375,0.9554629921913147,-1.2735786437988281,-1.6711933612823486
1684592014572434400,10.964434326171874,1.0502352714538574,-2.673849105834961,-2.330544948577881
1684592014589308000,10.981307861328125,1.1491913795471191,-3.4995765686035156,-2.771120309829712
1684592014606178300,10.99817822265625,0.5934858322143555,-3.8659229278564453,-3.2423105239868164
1684592014623056600,11.015056640625,-1.5195735692977905,-2.776111602783203,-3.7166454792022705
1684592014639927600,11.031927490234375,-1.3008918762207031,-1.5496416091918945,-1.4296696186065674
1684592014656800800,11.04880078125,-0.11410874128341675,-0.2941913604736328,0.9954137802124023
1684592014673673700,11.065673828125,-0.28321778774261475,1.193802833557129,2.472842216491699
1684592014690536200,11.0825361328125,-1.2706007957458496,1.1243572235107422,2.5561351776123047
1684592014707420200,11.099420166015625,-1.0220369100570679,1.009394645690918,2.1259851455688477
1684592014724293000,11.116293212890625,1.045016884803772,0.9327993392944336,1.5920414924621582
1684592014741166600,11.13316650390625,2.915360450744629,0.35699939727783203,1.3783397674560547
1684592014758039800,11.150039794921875,3.97169828414917,-0.9066457748413086,1.1867895126342773
1684592014774912800,11.166912841796876,4.233746528625488,-2.18691349029541,0.6765987873077393
1684592014791785700,11.18378564453125,4.186990737915039,-3.2446155548095703,0.29525017738342285
1684592014808659200,11.2006591796875,3.9818005561828613,-3.7213850021362305,0.2575087547302246
1684592014825532200,11.2175322265625,0.40920138359069824,-2.3659543991088867,-1.0774989128112793
1684592014842405600,11.234405517578125,1.5561662912368774,-0.8434543609619141,-0.6088497638702393
1684592014859278800,11.25127880859375,2.4309468269348145,0.06939411163330078,0.5584937334060669
1684592014876152000,11.268152099609376,2.17822265625,1.3378653526306152,1.0367940664291382
1684592014893025000,11.28502490234375,2.3105103969573975,2.3880014419555664,0.9954042434692383
1684592014909898500,11.3018984375,2.3392155170440674,2.8009023666381836,0.8060250282287598
1684592014926771500,11.318771484375,2.0227622985839844,2.2478127479553223,0.60075843334198
1684592014943644700,11.335644775390625,1.9674309492111206,1.1021647453308105,0.8476510047912598
1684592014960518000,11.352517822265625,2.0943098068237305,0.4142751693725586,1.5431928634643555
1684592014977391000,11.36939111328125,1.5403003692626953,0.024956703186035156,1.8307067155838013
1684592014994264000,11.38626416015625,0.35591673851013184,-0.26746273040771484,1.6336157321929932
1684592015011137300,11.40313720703125,-0.7949450016021729,-0.06540966033935547,0.785874605178833
1684592015028010500,11.420010498046874,-0.7980523109436035,0.21326637268066406,0.03930556774139404
1684592015044875000,11.436875,0.1315598487854004,0.4686880111694336,-0.3423583507537842
1684592015061757000,11.4537568359375,1.1705865859985352,0.6792593002319336,-0.4134727716445923
1684592015078630100,11.470630126953125,1.6813511848449707,0.7346391677856445,-0.18127107620239258
1684592015095503400,11.48750341796875,1.792826533317566,0.6706171035766602,0.19477307796478271
1684592015112376300,11.504376220703126,1.5841361284255981,0.37054443359375,0.6286722421646118
1684592015129249800,11.521249755859374,0.8744444847106934,-0.055794715881347656,1.0482933521270752
1684592015146120000,11.538119873046876,-0.2697300910949707,-0.20415592193603516,1.1036652326583862
1684592015162998800,11.554998779296875,-1.1970927715301514,-0.07231903076171875,0.7730154395103455
1684592015179869200,11.571869140625,-1.4945850372314453,0.06709098815917969,0.41982269287109375
1684592015196742400,11.588742431640625,-1.0457026958465576,-0.13287067413330078,0.2962937355041504
1684592015213615600,11.60561572265625,-0.5868172645568848,-0.08576583862304688,0.36670756340026855
1684592015230478300,11.622478271484376,-0.291090726852417,0.1085824966430664,0.6306695938110352
1684592015247362000,11.639362060546874,-0.31368255615234375,0.14424896240234375,1.1082091331481934
1684592015264235000,11.656235107421875,-0.3288908004760742,0.19666194915771484,1.4746540784835815
1684592015281108500,11.6731083984375,-0.16527819633483887,0.2559623718261719,1.6236848831176758
1684592015297981400,11.6899814453125,0.07948064804077148,0.2717733383178711,1.5803810358047485
1684592015314854700,11.706854736328125,0.037595510482788086,0.27784061431884766,1.2373534440994263
1684592015331728000,11.723727783203126,-0.3518795967102051,-0.5114212036132812,0.004416227340698242
1684592015348601000,11.74060107421875,-0.47487497329711914,-2.48468017578125,-1.761328101158142
1684592015365474300,11.757474365234375,-0.39261341094970703,-2.91947078704834,-2.6460318565368652
1684592015382340400,11.77434033203125,0.3433321714401245,-2.082087516784668,-1.9221296310424805
1684592015399220700,11.791220703125,1.869158387184143,-1.7057676315307617,-0.5981968641281128
1684592015416093700,11.80809375,1.9358924627304077,-1.5291967391967773,0.05396866798400879
1684592015432967000,11.824966796875,-1.4474455118179321,-1.638840675354004,-0.4368879795074463
1684592015449840400,11.84184033203125,-1.7346254587173462,-1.8316326141357422,0.4474329948425293
1684592015466713300,11.85871337890625,-3.7030935287475586,0.08241462707519531,2.544497489929199
1684592015483586300,11.87558642578125,-2.6848692893981934,1.2625131607055664,3.291919231414795
1684592015500459800,11.892459716796875,0.8315001726150513,1.922959804534912,2.5570127964019775
1684592015517333000,11.9093330078125,3.1198830604553223,2.1193747520446777,2.4585251808166504
1684592015534206200,11.926206298828125,4.758938789367676,0.7695808410644531,2.4953713417053223
1684592015551079000,11.943078857421876,5.34197998046875,-1.0189542770385742,2.157424211502075
1684592015567952400,11.959952392578124,4.6154046058654785,-1.5079221725463867,1.487774133682251
1684592015584825300,11.976825439453124,3.849071979522705,-0.49395275115966797,0.6301404237747192
1684592015601698800,11.99369873046875,2.114287853240967,0.9301919937133789,-0.19336867332458496
1684592015618572000,12.010572021484375,2.3028743267059326,1.4446425437927246,-0.387967586517334
1684592015635445200,12.0274453125,2.6435647010803223,1.3151187896728516,-0.5542900562286377
1684592015652318200,12.044318115234375,2.09757399559021,0.8218669891357422,-0.9164221286773682
1684592015669191400,12.06119140625,1.0076014995574951,0.15795135498046875,-1.465634822845459
1684592015686062800,12.078062744140626,0.03872925043106079,-0.9662332534790039,-1.6208910942077637
1684592015702939400,12.094939453125,0.2644885182380676,-1.7697219848632812,-0.9972898960113525
1684592015719811000,12.11181103515625,-0.012531518936157227,-1.2965526580810547,-0.4678189754486084
1684592015736670500,12.12867041015625,-0.5267537832260132,-0.579315185546875,-0.2940070629119873
1684592015753557500,12.1455576171875,-0.575853705406189,-0.5140447616577148,-0.41066527366638184
1684592015770420000,12.162419921875,-0.054833561182022095,-0.9070806503295898,-0.5085768699645996
1684592015787303700,12.1793037109375,0.5334590077400208,-0.7956838607788086,-0.22766876220703125
1684592015804177000,12.196177001953124,0.893697202205658,0.034773826599121094,0.05099797248840332
1684592015821050000,12.213050048828125,1.5595901012420654,0.32309532165527344,0.23077678680419922
1684592015837922800,12.2299228515625,2.0781915187835693,0.1425924301147461,0.27646899223327637
1684592015854796500,12.246796630859375,2.0292723178863525,-0.05422782897949219,0.14418697357177734
1684592015871669500,12.26366943359375,1.6644834280014038,-0.2570476531982422,-0.028034210205078125
1684592015888542700,12.280542724609376,1.4784622192382812,-0.3189058303833008,-0.014489889144897461
1684592015905416000,12.297416015625,1.5780339241027832,-0.23081207275390625,0.12829828262329102
1684592015922289400,12.314289306640624,1.4095325469970703,-0.022090911865234375,0.35318708419799805
1684592015939162400,12.331162353515625,0.932811975479126,0.30863189697265625,0.5795595645904541
1684592015956035600,12.34803564453125,0.3389433026313782,0.27263736724853516,0.6863361597061157
1684592015972908500,12.364908447265625,-0.17009741067886353,0.20335674285888672,0.45401954650878906
1684592015989782000,12.381781982421876,0.03955501317977905,0.42255306243896484,-0.278806209564209
1684592016006655200,12.3986552734375,0.4178125262260437,0.3002643585205078,-0.8685131072998047
1684592016023528200,12.415528076171874,0.5513497591018677,0.011801719665527344,-0.9559845924377441
1684592016040401400,12.4324013671875,-0.5925617814064026,0.7384510040283203,-0.9416372776031494
1684592016057274600,12.449274658203125,-1.8412680625915527,1.202291488647461,-0.9504604339599609
1684592016074147600,12.466147705078125,-0.028162792325019836,0.9065132141113281,-0.8713853359222412
1684592016091021000,12.48302099609375,1.408324956893921,0.5202751159667969,-0.5985667705535889
1684592016107894300,12.499894287109376,1.646306037902832,0.03217506408691406,-0.31055378913879395
1684592016124767200,12.516767333984374,1.2809406518936157,-0.42885684967041016,0.15421676635742188
1684592016141640400,12.533640380859374,0.8342769742012024,-0.4394397735595703,0.5943152904510498
1684592016158513700,12.550513671875,0.14583136141300201,-0.1139516830444336,0.985332727432251
1684592016175386600,12.56738671875,-0.25475257635116577,0.05076122283935547,1.350845217704773
1684592016192260000,12.584260009765625,-0.08685406297445297,-0.13602828979492188,1.7415249347686768
1684592016209133000,12.601133056640625,0.1604497730731964,-0.3925924301147461,1.9520457983016968
1684592016226005500,12.618005615234376,0.18541350960731506,-0.5268688201904297,1.8720781803131104
1684592016242880500,12.634880615234374,-0.34546148777008057,-0.5342388153076172,1.4294652938842773
1684592016259753000,12.6517529296875,-0.8085362911224365,-0.6730451583862305,0.6650550365447998
1684592016276625700,12.668625732421875,-0.8337753415107727,-0.7883920669555664,0.07899808883666992
1684592016293499000,12.685498779296875,-0.5161308646202087,-0.3560171127319336,-0.4432659149169922
1684592016310361600,12.702361572265625,-0.026599183678627014,-0.139556884765625,-0.7008140087127686
1684592016327245300,12.719245361328126,0.3310854434967041,-0.03563213348388672,-0.7751109600067139
1684592016344118500,12.736118408203126,0.48880624771118164,0.1768054962158203,-0.6614170074462891
1684592016360991700,12.75299169921875,0.7056454420089722,0.3545379638671875,-0.38541364669799805
1684592016377865000,12.769864990234375,0.9797109365463257,0.5209560394287109,-0.14026403427124023
1684592016394738200,12.78673828125,1.2678214311599731,0.6355991363525391,-0.08047723770141602
1684592016411611400,12.803611328125,1.4418386220932007,0.5787105560302734,-0.09112787246704102
1684592016428474000,12.82047412109375,1.5912301540374756,0.3709297180175781,-0.27515363693237305
1684592016445357600,12.837357666015626,1.5376869440078735,0.21404075622558594,-0.3489112854003906
1684592016462230800,12.854230712890624,1.1926448345184326,0.21755313873291016,-0.35268545150756836
1684592016479104000,12.87110400390625,0.587684690952301,0.1657085418701172,-0.3260939121246338
1684592016495966200,12.88796630859375,0.06270791590213776,-0.034682273864746094,-0.42507219314575195
1684592016512846600,12.9048466796875,-0.24110771715641022,-0.3155689239501953,-0.6090428829193115
1684592016529723100,12.92172314453125,-0.35178840160369873,-0.4189729690551758,-0.8042731285095215
1684592016546596600,12.9385966796875,-0.7062933444976807,-0.31896018981933594,-1.0793099403381348
1684592016563469800,12.9554697265625,-1.0725879669189453,-0.14211750030517578,-1.3196566104888916
1684592016580343000,12.972343017578124,-0.630456268787384,0.06295394897460938,-1.4866397380828857
1684592016597216300,12.98921630859375,0.2833489179611206,0.11452293395996094,-1.4408910274505615
1684592016614089200,13.006089111328125,0.8395057916641235,0.3170804977416992,-1.2703361511230469
1684592016630962400,13.02296240234375,1.0497204065322876,0.5203161239624023,-1.1563284397125244
1684592016647835600,13.039835693359375,1.0602415800094604,0.5201148986816406,-1.0758912563323975
1684592016664707000,13.05670703125,0.9861335754394531,0.5650844573974609,-1.0347392559051514
1684592016681584000,13.073584228515625,0.9012190103530884,0.6415557861328125,-0.9611549377441406
1684592016698455300,13.090455322265624,0.8397128582000732,0.6437711715698242,-0.8648810386657715
1684592016715328500,13.10732861328125,0.758522093296051,0.6422557830810547,-0.8109636306762695
1684592016732201500,13.124201416015625,0.8044875860214233,0.5554590225219727,-0.8571279048919678
1684592016749075000,13.141074951171875,0.8247207403182983,0.4735374450683594,-0.90976881980896
1684592016765948000,13.157947998046875,0.8394324779510498,0.4819154739379883,-0.8946595191955566
1684592016782821000,13.174821044921876,0.8316702842712402,0.5319852828979492,-0.9072592258453369
1684592016799694300,13.1916943359375,0.7383009195327759,0.4153566360473633,-0.98773193359375
1684592016816567600,13.208567626953124,0.3050273656845093,0.2909708023071289,-1.0365569591522217
1684592016833440500,13.2254404296875,0.00021311640739440918,0.30564117431640625,-1.090867042541504
1684592016850305300,13.24230517578125,-0.3508283793926239,0.5138645172119141,-1.176027774810791
1684592016867186700,13.259186767578125,-0.8642804622650146,0.7170076370239258,-1.5914013385772705
1684592016884060200,13.27606005859375,-1.167701005935669,0.9173402786254883,-2.261359691619873
1684592016900933400,13.292933349609376,-0.9552220106124878,0.9339971542358398,-2.739610195159912
1684592016917804000,13.309803955078126,-0.4326283633708954,0.8684988021850586,-2.8812551498413086
1684592016934682000,13.32668212890625,0.3400518298149109,0.4288291931152344,-2.703608512878418
1684592016951552800,13.343552734375,0.6313717365264893,-0.3793516159057617,-2.0240225791931152
1684592016968425700,13.36042578125,0.6239899396896362,-1.1945838928222656,-1.311522364616394
1684592016985299200,13.37729931640625,0.2780519723892212,-1.3567619323730469,-1.0175060033798218
1684592017002172400,13.39417236328125,0.13969114422798157,-1.7836923599243164,-0.974850058555603
1684592017019045400,13.41104541015625,0.30590805411338806,-2.7331743240356445,-0.872471809387207
1684592017035918800,13.4279189453125,-0.5373759269714355,-3.743414878845215,-0.06565558910369873
1684592017052791800,13.444791748046875,-1.8918492794036865,-3.757096290588379,1.2466042041778564
1684592017069665300,13.461665283203125,-2.4776973724365234,-2.5446252822875977,2.334223747253418
1684592017086538200,13.478538330078125,-2.172471046447754,-0.6998109817504883,2.4625396728515625
1684592017103411200,13.4954111328125,-2.00201416015625,0.4548168182373047,0.5902971029281616
1684592017120273700,13.512273681640625,-1.82132887840271,0.8172626495361328,-1.0724389553070068
1684592017137158000,13.529157958984374,-0.8212848901748657,1.4040870666503906,-1.817010760307312
1684592017154030800,13.54603076171875,0.541890025138855,2.258514404296875,-2.3451738357543945
1684592017170903800,13.56290380859375,1.220610499382019,2.3360228538513184,-2.5433058738708496
1684592017187777000,13.579777099609375,1.7749102115631104,1.4282026290893555,-1.9845021963119507
1684592017204650200,13.596650146484375,2.4523701667785645,0.4387779235839844,-1.5405175685882568
1684592017221523200,13.613523193359375,1.5148601531982422,-0.3878755569458008,-1.8448143005371094
1684592017238396700,13.630396728515626,0.7395745515823364,-0.9555177688598633,-2.440830707550049
1684592017255270000,13.647269775390624,0.8886098861694336,-0.8586435317993164,-2.0569405555725098
1684592017272143000,13.66414306640625,1.376811146736145,-0.41333866119384766,-1.1055262088775635
1684592017289016300,13.681016357421875,2.0738420486450195,-0.09284591674804688,-0.3402397632598877
1684592017305886700,13.69788671875,2.622180938720703,0.09098339080810547,0.06026601791381836
1684592017322764800,13.714764892578126,2.570672035217285,0.3758811950683594,0.1988586187362671
1684592017339635700,13.7316357421875,2.0103936195373535,0.47357749938964844,0.14932119846343994
1684592017356508200,13.748508056640626,1.7778253555297852,0.24486732482910156,0.18310999870300293
1684592017373383000,13.7653828125,1.4832490682601929,-0.10941696166992188,0.31657707691192627
1684592017390261500,13.782261474609374,0.925724983215332,-0.21054840087890625,0.7131407260894775
1684592017407128300,13.79912841796875,0.7234663963317871,-0.0035371780395507812,1.502529263496399
1684592017424001500,13.81600146484375,1.0552219152450562,0.48892879486083984,2.3243227005004883
1684592017440874800,13.832874755859375,1.552267074584961,0.9732933044433594,2.921337127685547
1684592017457748000,13.849748046875,2.175091505050659,1.7919907569885254,3.0840835571289062
1684592017474621200,13.86662109375,2.4350504875183105,2.4078564643859863,2.8373653888702393
1684592017491494100,13.883494140625,1.977732539176941,2.456418037414551,2.121933698654175
1684592017508367400,13.900367431640625,0.9248365163803101,2.0674057006835938,1.1423344612121582
1684592017525240300,13.917240234375,0.0033278465270996094,1.0261049270629883,0.40474700927734375
1684592017542113800,13.93411376953125,-1.0438909530639648,0.024291038513183594,-0.060976505279541016
1684592017558978300,13.950978271484376,-2.212587833404541,-0.4046459197998047,-0.47075510025024414
1684592017575860000,13.96785986328125,-3.1010162830352783,-0.7239141464233398,-0.8525257110595703
1684592017592733400,13.9847333984375,-3.514738082885742,-0.836146354675293,-1.421425223350525
1684592017609606400,14.0016064453125,-3.137014150619507,-0.595550537109375,-1.6798806190490723
1684592017626479600,14.018479736328125,-1.516589641571045,-0.6503314971923828,-0.8498507738113403
1684592017643352600,14.0353525390625,-0.9170775413513184,-0.33797740936279297,0.5172263383865356
1684592017660225500,14.0522255859375,-1.2689716815948486,0.19205665588378906,1.5005401372909546
1684592017677099000,14.06909912109375,-1.9104745388031006,-1.982330322265625,1.4242734909057617
1684592017693972200,14.08597216796875,-0.9280920028686523,-5.422162055969238,0.3759416341781616
1684592017710842600,14.102842529296876,0.7780240774154663,-7.946898460388184,0.14488959312438965
1684592017727721200,14.11972119140625,1.9315814971923828,-6.371945381164551,1.401855707168579
1684592017744591600,14.136591552734375,1.2879279851913452,-0.9974613189697266,2.436584949493408
1684592017761464800,14.15346484375,1.1143362522125244,2.2664318084716797,2.887242317199707
1684592017778338000,14.170338134765625,0.15670931339263916,3.6909379959106445,2.774686574935913
1684592017795211300,14.187211181640626,-0.7424453496932983,3.8629283905029297,2.236161947250366
1684592017812088800,14.2040888671875,0.3987387418746948,3.4955058097839355,1.6060258150100708
1684592017828957700,14.220957763671874,3.0560998916625977,2.6239748001098633,0.7221475839614868
1684592017845826600,14.23782666015625,4.87618350982666,1.0277481079101562,-0.06348681449890137
1684592017862708000,14.2547080078125,5.308481216430664,-0.9282455444335938,-0.8404804468154907
1684592017879577000,14.2715771484375,4.350070953369141,-2.270620346069336,-1.0961333513259888
1684592017896450300,14.2884501953125,2.8236889839172363,-2.086928367614746,-0.9136601686477661
1684592017913313000,14.30531298828125,-1.0701154470443726,0.08702564239501953,-1.4231013059616089
1684592017930196200,14.3221962890625,1.073506236076355,1.2466135025024414,-0.9871416091918945
1684592017947069400,14.3390693359375,2.0681326389312744,1.332798957824707,-0.770374059677124
1684592017963942700,14.355942626953125,1.4907240867614746,0.7716541290283203,-0.7439980506896973
1684592017980816100,14.372816162109375,-0.42884477972984314,-0.4198579788208008,-0.38170289993286133
1684592017997689300,14.389689453125,-1.256629467010498,-0.8737506866455078,0.017281770706176758
1684592018014561800,14.406561767578125,-1.0643879175186157,-0.5100822448730469,0.2515965700149536
1684592018031435500,14.423435546875,-1.5344253778457642,0.1379222869873047,0.5792921781539917
1684592018048308500,14.44030859375,-1.0372482538223267,0.8470067977905273,-0.10169482231140137
1684592018065181700,14.457181640625,0.09043502807617188,0.7907590866088867,-0.8049778938293457
1684592018082055000,14.474054931640625,-0.10341137647628784,0.3500499725341797,-0.9137105941772461
1684592018098928000,14.49092822265625,-0.3429804742336273,0.35033607482910156,-0.8198895454406738
1684592018115801300,14.50780126953125,-0.402429461479187,0.6707592010498047,-0.7376976013183594
1684592018132674300,14.52467431640625,-0.5210721492767334,0.7789602279663086,-0.6629912853240967
1684592018149547500,14.541547607421874,-0.6599440574645996,0.7171440124511719,-0.6036310195922852
1684592018166420700,14.558420654296874,-0.5498492121696472,0.5091571807861328,-0.3507649898529053
1684592018183293700,14.575293701171875,-0.4059881567955017,0.5803918838500977,-0.36782288551330566
1684592018200167200,14.592167236328125,-0.33698803186416626,0.8238992691040039,-0.5368978977203369
1684592018217040100,14.6090400390625,-0.4441183805465698,0.8818626403808594,-0.7429476976394653
1684592018233913300,14.625913330078125,-0.5246105194091797,0.8311586380004883,-1.2552430629730225
1684592018250782700,14.64278271484375,-0.2581385374069214,0.665959358215332,-1.5655425786972046
1684592018267659500,14.659659423828124,0.10391664505004883,0.4897727966308594,-1.7759156227111816
1684592018284532700,14.67653271484375,-0.3204077482223511,0.34062957763671875,-2.1298649311065674
1684592018301406000,14.693406005859375,-1.451026439666748,0.30075645446777344,-2.704113483428955
1684592018318279200,14.710279052734375,-1.3902065753936768,0.23124408721923828,-3.2915279865264893
1684592018335152400,14.72715234375,-0.1030428409576416,-0.36003971099853516,-3.686919689178467
1684592018352025000,14.744025146484375,0.07979059219360352,-2.0699644088745117,-4.32694149017334
1684592018368898600,14.760898681640626,-2.0759284496307373,-3.910602569580078,-5.2653279304504395
1684592018385771800,14.777771728515624,-2.897322177886963,-4.957489013671875,-5.592759609222412
1684592018402642200,14.79464208984375,-3.2716312408447266,-5.3374128341674805,-5.036908149719238
1684592018419520800,14.811520751953125,-2.168362855911255,-2.7216672897338867,-3.4258880615234375
1684592018436391200,14.82839111328125,-0.5846326947212219,-1.1796560287475586,-1.78639554977417
1684592018453264100,14.84526416015625,-0.014841631054878235,-1.1399364471435547,-0.3530302047729492
1684592018470138000,14.86213818359375,-0.7996975779533386,-0.753692626953125,0.1941816806793213
1684592018487010600,14.879010498046876,-0.5195746421813965,0.005649566650390625,0.5548717975616455
1684592018503883800,14.8958837890625,1.4018713235855103,0.47951507568359375,0.5601732730865479
1684592018520757000,14.912757080078125,2.7239625453948975,0.3273887634277344,0.49906158447265625
1684592018537630200,14.929630126953125,3.1825504302978516,-0.5347013473510742,0.40909552574157715
1684592018554503400,14.94650341796875,3.953704357147217,-1.609147071838379,0.14699578285217285
1684592018571376400,14.96337646484375,4.280184745788574,-1.8496103286743164,-0.08785200119018555
1684592018588249600,14.98024951171875,0.508019208908081,-1.5161418914794922,-1.2978615760803223
1684592018605111800,14.99711181640625,0.8496668338775635,-1.2695274353027344,-1.4698071479797363
1684592018621995800,15.013995849609374,2.563159465789795,-0.5248746871948242,-0.6141359806060791
1684592018638869000,15.030868896484375,3.1439011096954346,0.8746724128723145,0.24778413772583008
1684592018655742200,15.0477421875,3.376100540161133,2.34926176071167,0.8389127254486084
1684592018672615400,15.064615478515625,3.5872795581817627,3.312218189239502,1.2150787115097046
1684592018689488600,15.081488525390625,3.710047483444214,3.691222667694092,1.4456257820129395
1684592018706361300,15.098361328125,3.7322654724121094,3.6981916427612305,1.5337656736373901
1684592018723234800,15.11523486328125,3.6479439735412598,3.371781826019287,1.5774931907653809
1684592018740108000,15.13210791015625,3.077193260192871,3.2235097885131836,1.8458707332611084
1684592018756981200,15.148981201171875,2.8082656860351562,3.5952844619750977,2.249828815460205
1684592018773854200,15.165854248046875,2.5233843326568604,3.758573055267334,2.6792073249816895
1684592018790717000,15.182717041015625,1.834216594696045,2.72072696685791,3.0890579223632812
1684592018807600400,15.199600341796875,-0.33263301849365234,-0.2506294250488281,3.309748649597168
1684592018824473600,15.2164736328125,-3.849154472351074,-3.500825881958008,1.548902988433838
1684592018841347000,15.23334716796875,-7.6656951904296875,-6.108798980712891,-2.3797767162323
1684592018858220000,15.250219970703125,-8.763910293579102,-5.674595832824707,-5.802565574645996
1684592018875093200,15.26709326171875,-6.154694557189941,-2.3099212646484375,-5.8196234703063965
1684592018891966200,15.28396630859375,-1.6135003566741943,-0.6078214645385742,-2.800475597381592
1684592018908839400,15.30083935546875,0.4476649761199951,0.032151222229003906,1.2632299661636353
1684592018925712600,15.317712646484376,1.7088532447814941,-2.099306106567383,2.3488945960998535
1684592018942575000,15.3345751953125,3.3148000240325928,-4.086461067199707,2.5362610816955566
1684592018959458800,15.351458740234374,3.6010613441467285,-4.730349540710449,4.158127784729004
1684592018976332000,15.36833203125,2.076127290725708,-3.244673728942871,6.252635955810547
1684592018993205200,15.385205322265625,-3.310418128967285,-0.5801630020141602,3.0080533027648926
1684592019010067700,15.402067626953125,-0.307466983795166,1.8036298751831055,-0.013074040412902832
1684592019026951400,15.418951416015625,4.947304725646973,2.4898223876953125,-0.48046350479125977
1684592019043824400,15.435824462890626,5.54958963394165,3.031872272491455,-0.6925554275512695
1684592019060697900,15.45269775390625,5.367715358734131,2.895358085632324,-1.1452685594558716
1684592019077571000,15.469571044921874,5.159168720245361,1.6137709617614746,-1.6735442876815796
1684592019094440200,15.486440185546876,4.867500305175781,-0.5671253204345703,-2.4241724014282227
1684592019111321000,15.503321044921876,2.8438656330108643,-2.237224578857422,-3.185647487640381
1684592019128190200,15.520190185546875,-3.2717156410217285,-1.5015811920166016,-4.0480451583862305
1684592019145063400,15.5370634765625,-0.3675886392593384,-0.15046977996826172,-2.68107271194458
1684592019161937000,15.55393701171875,2.062359094619751,1.106328010559082,-1.5011708736419678
1684592019178809900,15.570809814453124,-2.879396438598633,2.6753787994384766,-0.4566342830657959
1684592019195683000,15.58768310546875,0.7400196194648743,1.4172487258911133,-0.5347387790679932
1684592019212556000,15.60455615234375,3.6263198852539062,0.7092914581298828,-1.439161777496338
1684592019229429200,15.62142919921875,2.2691304683685303,-0.266326904296875,-1.841827630996704
1684592019246302500,15.638302490234375,0.018772602081298828,0.12466239929199219,-1.1858468055725098
1684592019263175400,15.655175537109375,-0.14980828762054443,0.7059574127197266,-0.8323788642883301
1684592019280049000,15.672048828125,0.3892804682254791,1.2527847290039062,-0.6786894798278809
1684592019296911000,15.6889111328125,0.3290776014328003,1.6082210540771484,-0.37631845474243164
1684592019313795000,15.705795166015625,-0.23245535790920258,1.5644574165344238,-0.18245482444763184
1684592019330668000,15.72266796875,-0.7331067323684692,1.0253887176513672,-0.16367721557617188
1684592019347541000,15.739541015625,-0.9098045825958252,0.29758548736572266,-0.2231307029724121
1684592019364414500,15.75641455078125,-1.050736665725708,-0.2850933074951172,-0.26807212829589844
1684592019381287700,15.77328759765625,-1.566836953163147,-0.5508394241333008,-0.16817378997802734
1684592019398160400,15.790160400390626,-1.7952663898468018,-0.39405059814453125,-0.11582350730895996
1684592019415033900,15.807033935546874,-1.3353546857833862,-0.23418807983398438,-0.4421427249908447
1684592019431907000,15.823906982421875,-0.6744629144668579,0.04926872253417969,-0.9795190095901489
1684592019448780000,15.840780029296875,-0.4928971529006958,0.09304523468017578,-1.870497703552246
1684592019465653200,15.8576533203125,-0.3928679823875427,-0.02831268310546875,-2.2333004474639893
1684592019482526500,15.8745263671875,-0.8295865654945374,0.1245279312133789,-2.8625993728637695
1684592019499399700,15.891399658203126,-1.3950774669647217,0.1266489028930664,-3.444448471069336
1684592019516273000,15.90827294921875,-0.5019178986549377,-0.07645034790039062,-3.8139517307281494
1684592019533145900,15.925145751953124,0.5941556692123413,-0.9398603439331055,-4.134897232055664
1684592019550018800,15.942018798828125,-0.001551508903503418,-2.3249635696411133,-4.810450553894043
1684592019566892500,15.958892578125,-1.9372308254241943,-2.9523134231567383,-5.632167339324951
1684592019583765200,15.97576513671875,-4.397045612335205,-3.6914796829223633,-5.798379898071289
1684592019600638500,15.992638427734375,-1.4249666929244995,-2.563638687133789,-5.121328353881836
1684592019617511700,16.00951171875,0.8714903593063354,-0.6296224594116211,-2.7302234172821045
1684592019634384600,16.026384521484374,-2.2459518909454346,0.19122791290283203,-1.1343801021575928
1684592019651257900,16.0432578125,-3.1028122901916504,-0.899205207824707,-0.19372797012329102
1684592019668130800,16.060130859375,0.08434033393859863,-0.600895881652832,-0.6343338489532471
1684592019684992300,16.0769921875,3.0445098876953125,-0.11672782897949219,-0.7720091342926025
1684592019701875700,16.093875732421875,3.7331087589263916,-0.43900299072265625,-0.5704469680786133
1684592019718751000,16.1107509765625,4.064024925231934,-1.0277042388916016,-0.4860343933105469
1684592019735623400,16.12762353515625,4.74900484085083,-1.6319046020507812,-0.6330125331878662
1684592019752496600,16.14449658203125,5.4264678955078125,-1.7460861206054688,-0.8824031352996826
1684592019769369900,16.161369873046876,5.476673603057861,-1.0518245697021484,-0.8211324214935303
1684592019786240500,16.178240478515626,4.494336128234863,-0.06348037719726562,-0.5120680332183838
1684592019803118600,16.19511865234375,-3.412141799926758,1.0725493431091309,-1.7873964309692383
1684592019819989500,16.211989501953123,-2.2905375957489014,1.1086649894714355,-1.4824838638305664
1684592019836862200,16.2288623046875,1.8775269985198975,1.23895263671875,-0.6386101245880127
1684592019853735400,16.2457353515625,5.05831241607666,1.548241138458252,0.566525936126709
1684592019870608600,16.262608642578126,6.514093399047852,1.6622910499572754,1.453247308731079
1684592019887481900,16.27948193359375,6.0445966720581055,1.921705722808838,1.8555808067321777
1684592019904355000,16.29635498046875,4.263287544250488,2.526035785675049,1.9842246770858765
1684592019921228000,16.31322802734375,2.8020830154418945,2.907118797302246,1.945880651473999
1684592019938101200,16.330101318359375,1.9713321924209595,2.995424270629883,2.0052287578582764
1684592019954974200,16.34697412109375,1.4972314834594727,2.9796695709228516,2.3075973987579346
1684592019971847400,16.363847412109376,1.0698363780975342,2.4432692527770996,2.792790651321411
1684592019988704000,16.3807041015625,-0.2601613998413086,0.6430397033691406,3.5985913276672363
1684592020005593900,16.39759375,-1.1201591491699219,-2.4571800231933594,4.2473320960998535
1684592020022467000,16.414467041015627,-2.6641323566436768,-5.101360321044922,2.4632294178009033
1684592020039340000,16.431340087890625,-7.1185688972473145,-5.311120986938477,-1.8681821823120117
1684592020056213200,16.448213134765624,-9.216444969177246,-4.187232971191406,-4.534091949462891
1684592020073086200,16.465086181640626,-5.577803611755371,-2.4035568237304688,-4.856809616088867
1684592020089959200,16.481959228515624,-1.4000604152679443,0.26103973388671875,-3.8463656902313232
1684592020106832400,16.498832275390626,1.6747429370880127,2.0273690223693848,-1.0966987609863281
1684592020123705600,16.51570556640625,2.4209954738616943,2.844417095184326,1.1072636842727661
1684592020140578800,16.532578857421875,2.8726696968078613,0.31258678436279297,1.31495201587677
1684592020157452000,16.5494521484375,4.409937858581543,-2.8762407302856445,-0.47333264350891113
1684592020174325200,16.5663251953125,3.165426731109619,-5.036653518676758,-1.0857791900634766
1684592020191198200,16.5831982421875,-3.633665084838867,-4.478193283081055,-1.419579267501831
1684592020208071400,16.600071533203124,-4.37153434753418,-2.6256093978881836,0.5860389471054077
1684592020224944400,16.6169443359375,2.9664456844329834,1.2244372367858887,3.0248756408691406
1684592020241817900,16.63381787109375,4.077016830444336,3.211639404296875,2.879373550415039
1684592020258690800,16.65069091796875,4.70396089553833,3.12617826461792,2.2923545837402344
1684592020275564000,16.66756396484375,5.655125141143799,1.9920682907104492,1.4969547986984253
1684592020292437200,16.684437255859375,6.841523170471191,0.7728166580200195,0.4805440902709961
1684592020309310500,16.701310546875,6.81617546081543,-0.8082551956176758,-0.3845038414001465
1684592020326180600,16.7181806640625,5.4175567626953125,-2.3907690048217773,-0.9856534004211426
1684592020343059200,16.73505908203125,-7.400521755218506,-1.3556251525878906,-2.884014368057251
1684592020359929600,16.7519296875,-5.853695392608643,-0.34145355224609375,-2.5720252990722656
1684592020376802800,16.768802734375,0.3539327383041382,-0.24674320220947266,-1.211482286453247
1684592020393675800,16.78567578125,1.2895216941833496,0.6511707305908203,-0.5914430618286133
1684592020410549000,16.802549072265624,-0.019404709339141846,0.4178476333618164,-0.052199602127075195
1684592020427422000,16.819421875,0.685420036315918,-0.667353630065918,0.08666777610778809
1684592020444295200,16.836295166015624,1.9453623294830322,-0.8600044250488281,0.13390135765075684
1684592020461168400,16.85316845703125,1.7559101581573486,-0.11361122131347656,0.36231112480163574
1684592020478040000,16.8700400390625,0.7695045471191406,0.7165927886962891,0.6449010372161865
1684592020494916400,16.886916259765623,0.04957929253578186,1.2504358291625977,0.7143595218658447
1684592020511787500,16.90378759765625,0.07287641614675522,1.385636806488037,0.7489490509033203
1684592020528660700,16.92066064453125,0.0634814202785492,1.0682334899902344,0.6754038333892822
1684592020545534000,16.937533935546874,-0.4637303650379181,0.44576072692871094,0.4874894618988037
1684592020562407200,16.9544072265625,-1.1426283121109009,0.18656253814697266,-0.2442164421081543
1684592020579280400,16.9712802734375,-1.1581447124481201,0.030797958374023438,-0.5693314075469971
1684592020596153300,16.9881533203125,-1.1735961437225342,-0.0030851364135742188,-0.5790643692016602
1684592020613026600,17.005026611328127,-0.9656519293785095,0.16972637176513672,-0.4110727310180664
1684592020629899800,17.021899658203125,-0.6562502384185791,0.21696186065673828,-0.15155458450317383
1684592020646773000,17.03877294921875,-0.48753082752227783,0.2544364929199219,-0.015692710876464844
1684592020663646000,17.05564599609375,-0.3928676247596741,0.4080314636230469,0.10421204566955566
1684592020680508400,17.07250830078125,-0.6696707010269165,0.6836509704589844,0.20951199531555176
1684592020697392000,17.08939208984375,-0.8774040937423706,0.8792076110839844,0.01656365394592285
1684592020714265300,17.106265380859377,-0.8566861152648926,1.1987743377685547,-0.9833879470825195
1684592020731138600,17.123138671875,-0.5042978525161743,0.8075723648071289,-1.461317777633667
1684592020748011800,17.14001171875,-0.040154218673706055,0.2422008514404297,-1.806563377380371
1684592020764884700,17.156884765625,-0.38708043098449707,-0.12186336517333984,-2.227612018585205
1684592020781757400,17.17375732421875,-1.1370447874069214,-0.32404327392578125,-2.8214285373687744
1684592020798631000,17.190630859375,-0.7596753835678101,-0.22249412536621094,-3.401884078979492
1684592020815504100,17.207504150390626,0.14111816883087158,-0.03824901580810547,-3.8282272815704346
1684592020832377000,17.224377197265625,0.514149010181427,-0.25459957122802734,-4.444340705871582
1684592020849250300,17.241250244140623,-0.5225546360015869,-0.5151348114013672,-5.157122611999512
1684592020866120700,17.25812060546875,0.5199465751647949,-1.9575309753417969,-3.730417251586914
1684592020882999000,17.2749990234375,1.010721206665039,-2.74552059173584,-2.9733994007110596
1684592020899870000,17.291869873046874,-0.7872848510742188,-3.8896379470825195,-2.4248554706573486
1684592020916745000,17.308744873046876,-2.375692367553711,-3.5956945419311523,-1.454923152923584
1684592020933613800,17.32561376953125,-2.2327561378479004,-2.026431083679199,-0.5415079593658447
1684592020950478800,17.342478759765626,-1.9515421390533447,-1.0935401916503906,0.17465972900390625
1684592020967362300,17.3593623046875,-1.7220313549041748,-0.8492641448974609,0.9506828784942627
1684592020984235300,17.3762353515625,-1.1952767372131348,-0.9148330688476562,1.5309697389602661
1684592021001108500,17.3931083984375,0.07867252826690674,-0.8413896560668945,1.7128987312316895
1684592021017981700,17.409981689453126,1.9117428064346313,-0.5526342391967773,1.8591399192810059
1684592021034855000,17.42685498046875,3.3455312252044678,-0.37375450134277344,2.0465517044067383
1684592021051728000,17.443727783203126,4.314542293548584,-0.5174999237060547,2.316483497619629
1684592021068600800,17.460600830078125,4.323191165924072,-1.1939764022827148,2.2472846508026123
1684592021085474000,17.47747412109375,3.314840316772461,-1.7584466934204102,0.9394040107727051
1684592021102347300,17.49434716796875,2.5079054832458496,-1.5892572402954102,0.15304327011108398
1684592021119220200,17.51122021484375,1.6885980367660522,-0.8369731903076172,0.8496365547180176
1684592021136093400,17.528093505859374,1.0580940246582031,0.1465282440185547,1.647031545639038
1684592021152966700,17.544966552734376,0.9532279968261719,1.215407371520996,2.2665257453918457
1684592021169839600,17.561839599609375,1.2865269184112549,1.988067626953125,2.8875255584716797
1684592021186712800,17.578712890625,1.5132195949554443,2.3823375701904297,3.5059685707092285
1684592021203585800,17.595585693359375,1.582240343093872,2.601503372192383,3.9848830699920654
1684592021220459300,17.612459228515625,1.643338918685913,2.396669387817383,4.316157341003418
1684592021237332200,17.629332275390624,1.8835872411727905,1.6804604530334473,4.11888313293457
1684592021254205200,17.646205078125,2.287534236907959,0.83416748046875,3.2672555446624756
1684592021271078400,17.663078369140624,1.968246340751648,0.2214374542236328,2.1446261405944824
1684592021287951600,17.67995166015625,0.8648056983947754,0.12488365173339844,1.071930170059204
1684592021304824600,17.696824462890625,0.4955708980560303,0.3849344253540039,0.13121986389160156
1684592021321697800,17.71369775390625,0.615525484085083,0.5799932479858398,-0.5366520881652832
1684592021338571000,17.730571044921874,0.4181501865386963,0.6614007949829102,-0.9258880615234375
1684592021355444000,17.74744384765625,-0.5252318382263184,0.7236709594726562,-1.1088569164276123
1684592021372317000,17.76431689453125,-1.828406810760498,0.4392671585083008,-1.2823495864868164
1684592021389190100,17.781190185546876,-2.528864860534668,-0.24406051635742188,-1.4577486515045166
1684592021406051300,17.79805126953125,-3.0013184547424316,-1.0892095565795898,-1.413313865661621
1684592021422937900,17.814937744140625,-3.4406838417053223,-1.3563213348388672,-0.8265891075134277
1684592021439809500,17.8318095703125,-3.086709976196289,-0.8902912139892578,-0.2481989860534668
1684592021456682800,17.848682861328125,-1.7478116750717163,-1.1604480743408203,0.04586601257324219
1684592021473557000,17.865556884765624,0.029039978981018066,-3.0268354415893555,0.060033321380615234
1684592021490417400,17.88241748046875,1.245234727859497,-4.104039192199707,0.5130447149276733
1684592021507302100,17.89930224609375,1.6565498113632202,-2.8884620666503906,1.7473931312561035
1684592021524175400,17.91617529296875,1.8445336818695068,-0.3913106918334961,2.257641553878784
1684592021541048300,17.93304833984375,2.141356945037842,1.1087169647216797,2.4061172008514404
1684592021557921500,17.949921630859375,1.8154162168502808,2.196300983428955,2.4746930599212646
1684592021574794500,17.96679443359375,0.7449945211410522,2.462210178375244,2.7445645332336426
1684592021591667700,17.983667724609376,-0.1831703782081604,1.665158748626709,2.2116713523864746
1684592021608540700,18.000540771484374,0.8114867806434631,0.5824909210205078,1.387168049812317
1684592021625414000,18.017413818359376,1.9955580234527588,-0.8436441421508789,0.6762416362762451
1684592021642287000,18.034287109375,0.9899485111236572,-1.7984790802001953,-0.07287764549255371
1684592021659159800,18.051159912109377,-2.053471565246582,-1.659785270690918,-0.39165520668029785
1684592021676033300,18.068033203125,-3.334367513656616,-1.2835445404052734,-0.14467787742614746
1684592021692906200,18.08490625,-1.4332940578460693,-0.6227779388427734,0.4485741853713989
1684592021709779500,18.101779541015624,0.5927905440330505,0.2503089904785156,0.6720876693725586
1684592021726649300,18.1186494140625,1.4642153978347778,0.5325736999511719,0.7088125944137573
1684592021743529000,18.135529052734373,1.600286841392517,0.23663330078125,0.7502663135528564
1684592021760398800,18.15239892578125,1.5718706846237183,-0.11754035949707031,0.7722698450088501
1684592021777271800,18.169271728515625,1.5678454637527466,-0.2958660125732422,0.6954714059829712
1684592021794147300,18.186147216796876,1.7248603105545044,-0.19203853607177734,0.46103739738464355
1684592021811005000,18.2030048828125,1.7592028379440308,-0.0718536376953125,0.29759812355041504
1684592021827891200,18.21989111328125,1.5987178087234497,0.0758056640625,0.2645382881164551
1684592021844764200,18.23676416015625,1.205517292022705,0.20538330078125,0.14757275581359863
1684592021861637400,18.253637451171876,0.759850025177002,0.16533279418945312,-0.0767812728881836
1684592021878510600,18.270510498046875,0.38697531819343567,-0.09708499908447266,-0.384796142578125
1684592021895383800,18.2873837890625,-0.008614681661128998,-0.3699073791503906,-0.6117744445800781
1684592021912256500,18.304256591796875,-0.2640744745731354,-0.559046745300293,-0.5847926139831543
1684592021929130000,18.3211298828125,-0.31228286027908325,-0.44199085235595703,-0.4330174922943115
1684592021946001400,18.33800146484375,-0.3991542160511017,-0.10449600219726562,-0.40578484535217285
1684592021962877400,18.35487744140625,-0.5090042352676392,0.12738513946533203,-0.5217499732971191
1684592021979749400,18.371749267578124,-0.5744860768318176,0.0998392105102539,-0.48613739013671875
1684592021996622600,18.38862255859375,-0.2567835748195648,-0.1251211166381836,-0.40958261489868164
1684592022013495300,18.405495361328125,-0.0936850905418396,-0.1022796630859375,-0.4911351203918457
1684592022030358300,18.422358154296877,-0.24140405654907227,-0.1453695297241211,-0.4022209644317627
1684592022047241500,18.439241455078125,-0.11533552408218384,-0.26755332946777344,-0.324185848236084
1684592022064115000,18.456114990234376,0.035795241594314575,-0.28185176849365234,-0.19911551475524902
1684592022080988000,18.47298779296875,0.12930646538734436,-0.09859085083007812,-0.0036242008209228516
1684592022097861000,18.489861083984376,0.2094970941543579,0.062404632568359375,0.10873723030090332
1684592022114733800,18.50673388671875,0.28648582100868225,0.09366893768310547,0.14495635032653809
1684592022131607300,18.523607177734377,0.4563348889350891,0.07246017456054688,0.1404564380645752
1684592022148480000,18.54047998046875,0.6059730052947998,0.08024787902832031,0.08426451683044434
1684592022165353200,18.557353271484374,0.6066280007362366,0.0996551513671875,0.010507822036743164
1684592022182226700,18.574226806640624,0.45573416352272034,0.14835548400878906,-0.11831045150756836
1684592022199088600,18.591088623046875,0.3865014314651489,0.11174964904785156,-0.2552638053894043
1684592022215972900,18.607972900390624,0.376776784658432,0.07071781158447266,-0.3940141201019287
1684592022232845800,18.624845703125,0.21473166346549988,0.08212089538574219,-0.4898197650909424
1684592022249719000,18.641718994140625,0.17210343480110168,0.22779273986816406,-0.5825963020324707
1684592022266592000,18.658592041015623,0.10121181607246399,0.4516773223876953,-0.6206603050231934
1684592022283465200,18.67546533203125,0.0914313793182373,0.5446624755859375,-0.5316512584686279
1684592022300338400,18.69233837890625,0.007132768630981445,0.4429779052734375,-0.44147801399230957
1684592022317211600,18.709211669921874,0.07094642519950867,0.3605232238769531,-0.557847261428833
1684592022334084600,18.726084716796876,-0.2650599479675293,0.1983633041381836,-0.46961355209350586
1684592022350957600,18.74295751953125,-0.3823789060115814,0.1012420654296875,-0.39934587478637695
1684592022367830800,18.759830810546877,-0.382102370262146,0.0888662338256836,-0.15378046035766602
1684592022384703700,18.776703857421875,-0.29111260175704956,0.027578353881835938,0.046425580978393555
1684592022401577000,18.793576904296874,-0.4084681272506714,0.030702590942382812,0.1928567886352539
1684592022418450000,18.810449951171876,-0.4138653874397278,0.040683746337890625,0.21470427513122559
1684592022435323000,18.827322998046874,-0.44437840580940247,0.03317832946777344,0.21796703338623047
1684592022452196000,18.844196044921876,-0.44481930136680603,0.04091835021972656,0.15184712409973145
1684592022469069300,18.8610693359375,-0.43911299109458923,-0.016866683959960938,-0.007658243179321289
1684592022485942500,18.877942626953125,-0.46429190039634705,-0.021322250366210938,-0.15992951393127441
1684592022502815700,18.894815673828123,-0.47548139095306396,-0.008226394653320312,-0.2097170352935791
1684592022519685400,18.911685302734377,-0.535492479801178,-0.06420135498046875,-0.07256007194519043
1684592022536565200,18.928565185546876,-0.5548139810562134,-0.0987396240234375,0.17489409446716309
1684592022553435000,18.945434814453126,-0.549286961555481,-0.09073829650878906,0.3524618148803711
1684592022570305500,18.962305419921876,-0.5916041135787964,-0.05152606964111328,0.3815600872039795
1684592022587181000,18.97918115234375,-0.4683447480201721,-0.16931438446044922,0.4353525638580322
1684592022604054300,18.99605419921875,-0.4031936824321747,-0.1528024673461914,0.35679125785827637
1684592022620927500,19.012927490234375,-0.47857293486595154,-0.07805919647216797,0.1393909454345703
1684592022637800400,19.029800537109374,-0.4735414385795593,-0.1037445068359375,-0.01141214370727539
1684592022654673700,19.046673583984376,-0.4377916753292084,0.026479721069335938,-0.11532044410705566
1684592022671546600,19.063546630859374,-0.4555136561393738,0.09306812286376953,-0.13387823104858398
1684592022688419600,19.080419677734376,-0.43208128213882446,0.048587799072265625,-0.12588858604431152
1684592022705292500,19.09729248046875,-0.3051691949367523,0.021787643432617188,-0.11078476905822754
1684592022722166000,19.114166015625,-0.23291856050491333,0.0813589096069336,-0.10780787467956543
1684592022739039200,19.131039306640623,-0.25186723470687866,0.06945419311523438,-0.11528325080871582
1684592022755912000,19.147911865234374,-0.29987049102783203,0.024117469787597656,-0.08524322509765625
1684592022772785200,19.16478515625,-0.3026774525642395,0.040782928466796875,-0.010848760604858398
1684592022789658400,19.181658447265626,-0.23549017310142517,0.052005767822265625,0.034154415130615234
1684592022806528800,19.19852880859375,-0.25715872645378113,0.040340423583984375,0.06843304634094238
1684592022823407000,19.215406982421875,-0.2794649302959442,0.010806083679199219,-0.009976863861083984
1684592022840277800,19.23227783203125,-0.28012093901634216,-0.09065055847167969,-0.11843395233154297
1684592022857150700,19.249150634765623,-0.22750985622406006,-0.12452983856201172,-0.21800923347473145
1684592022874011100,19.26601123046875,-0.22321224212646484,-0.040596961975097656,-0.23376131057739258
1684592022890888400,19.282888427734374,-0.3120558559894562,0.10534477233886719,-0.1706836223602295
1684592022907770000,19.29977001953125,-0.2772846519947052,0.1937999725341797,-0.14490342140197754
1684592022924643000,19.31664306640625,-0.21634304523468018,0.16800689697265625,-0.12914204597473145
1684592022941516300,19.333516357421875,-0.18809542059898376,0.13783550262451172,-0.21883893013000488
1684592022958389200,19.35038916015625,-0.14575520157814026,0.09384918212890625,-0.2765817642211914
1684592022975262700,19.3672626953125,-0.05281186103820801,0.15514564514160156,-0.30114197731018066
1684592022992142000,19.38414208984375,0.021431028842926025,0.14400005340576172,-0.3112208843231201
1684592023009008600,19.401008544921876,-0.047248661518096924,0.04249095916748047,-0.3003385066986084
1684592023025879000,19.417879150390625,-0.23510277271270752,-0.02216815948486328,-0.1958458423614502
1684592023042757400,19.43475732421875,-0.2742430865764618,-0.0802927017211914,-0.015362739562988281
1684592023059628000,19.4516279296875,-0.2227613925933838,-0.13475513458251953,0.2246870994567871
1684592023076501200,19.468501220703125,-0.2242605984210968,-0.12699127197265625,0.38794779777526855
1684592023093374000,19.4853740234375,-0.19630718231201172,-0.17473983764648438,0.4709436893463135
1684592023110261200,19.50226123046875,-0.11916649341583252,-0.1981801986694336,0.5082995891571045
1684592023127120400,19.519120361328124,-0.11141663789749146,-0.13474655151367188,0.4931972026824951
1684592023143993600,19.53599365234375,-0.18659183382987976,-0.046830177307128906,0.4584939479827881
1684592023160866600,19.552866455078124,-0.20777598023414612,-0.07704544067382812,0.47293782234191895
1684592023177739800,19.56973974609375,-0.26027506589889526,-0.07390403747558594,0.48223423957824707
1684592023194612700,19.58661279296875,-0.3420199155807495,-0.06087684631347656,0.4140908718109131
1684592023211485700,19.603485595703123,-0.3311443626880646,-0.06123065948486328,0.2676811218261719
1684592023228359000,19.62035888671875,-0.20372995734214783,-0.1149435043334961,0.14008688926696777
1684592023245238500,19.637238525390625,-0.19654551148414612,-0.09779548645019531,0.12022781372070312
1684592023262105300,19.654105224609374,-0.3007085621356964,-0.07192516326904297,0.19335436820983887
1684592023278978300,19.670978271484376,-0.3267952799797058,-0.07499980926513672,0.26160120964050293
1684592023295851300,19.687851318359375,-0.28277143836021423,-0.0687417984008789,0.20625662803649902
1684592023312727600,19.7047275390625,-0.2857134938240051,-0.12491989135742188,0.11695742607116699
1684592023329594000,19.721593994140626,-0.3403947949409485,-0.09501266479492188,0.06370353698730469
1684592023346470400,19.738470458984374,-0.39466241002082825,-0.09506034851074219,0.055303335189819336
1684592023363343600,19.755343505859376,-0.46300631761550903,-0.10923576354980469,0.08618950843811035
1684592023380216800,19.772216796875,-0.4688988924026489,-0.03868675231933594,0.09430909156799316
1684592023397089500,19.789089599609376,-0.39090949296951294,-0.005564689636230469,0.06349635124206543
1684592023413962800,19.805962646484375,-0.32923635840415955,0.008631706237792969,0.033667564392089844
1684592023430836000,19.8228359375,-0.30778440833091736,0.018022537231445312,0.04388928413391113
1684592023447709200,19.839709228515623,-0.28139713406562805,0.027078628540039062,0.08487915992736816
1684592023464582000,19.856581787109373,-0.2561696767807007,0.05521392822265625,0.07393145561218262
1684592023481455400,19.873455322265624,-0.22031950950622559,0.050581932067871094,0.07067561149597168
1684592023498328000,19.890328125,-0.23008522391319275,0.06551170349121094,0.1119074821472168
1684592023515201500,19.907201416015624,-0.19334346055984497,0.10532569885253906,0.2369832992553711
1684592023532074500,19.924074462890626,-0.1588039994239807,0.12578487396240234,0.28790974617004395
1684592023548947700,19.94094775390625,-0.19185006618499756,-0.009480476379394531,0.24869227409362793
1684592023565819100,19.957819091796875,-0.2961139380931854,-0.05789947509765625,0.10525155067443848
1684592023582695400,19.9746953125,-0.31157487630844116,-0.04510211944580078,0.01782059669494629
1684592023599566800,19.99156689453125,-0.3438006043434143,-0.00017070770263671875,-0.07585883140563965
1684592023616440000,20.008440185546874,-0.4502183198928833,0.024626731872558594,-0.20611143112182617
1684592023633313000,20.02531298828125,-0.4843677580356598,-0.056725502014160156,-0.27383899688720703
1684592023650186000,20.04218603515625,-0.5354762673377991,-0.014507293701171875,-0.3005499839782715
1684592023667059200,20.05905908203125,-0.5848182439804077,0.056603431701660156,-0.40148282051086426
1684592023683932200,20.07593212890625,-0.6953945159912109,0.07588672637939453,-0.46491360664367676
1684592023700805600,20.0928056640625,-0.6293901205062866,0.10888004302978516,-0.4617273807525635
1684592023717678600,20.1096787109375,-0.537395179271698,0.08482933044433594,-0.4704151153564453
1684592023734551600,20.126551513671874,-0.5616323947906494,-0.000484466552734375,-0.5118987560272217
1684592023751424800,20.1434248046875,-0.6205724477767944,0.016358375549316406,-0.43560266494750977
1684592023768297700,20.160297607421874,-0.43506643176078796,0.14363861083984375,-0.20856428146362305
1684592023785170700,20.177170654296877,-0.27687615156173706,0.16767215728759766,-0.10231471061706543
1684592023802044200,20.194044189453123,-0.27545255422592163,0.16553688049316406,-0.11860084533691406
1684592023818917000,20.210917236328125,-0.17588651180267334,0.18714237213134766,-0.12444519996643066
1684592023835790300,20.227790283203124,-0.22870922088623047,0.17528438568115234,-0.05920243263244629
1684592023852663300,20.244663330078126,-0.24594321846961975,0.2443990707397461,-0.09867238998413086
1684592023869536300,20.261536376953124,-0.1539844274520874,0.20662879943847656,-0.12038397789001465
1684592023886409200,20.2784091796875,0.010090410709381104,0.1786956787109375,-0.1909489631652832
1684592023903282400,20.295282470703125,0.05495554208755493,0.1843719482421875,-0.24365878105163574
1684592023920155600,20.31215576171875,-0.0007224678993225098,0.26151180267333984,-0.2917201519012451
1684592023937028900,20.32902880859375,-0.0691453218460083,0.3201770782470703,-0.364790678024292
1684592023953901600,20.345901611328124,-0.027836620807647705,0.3457517623901367,-0.46193552017211914
1684592023970774800,20.36277490234375,-0.10407811403274536,0.3786640167236328,-0.5465340614318848
1684592023987647700,20.379647705078124,-0.15483909845352173,0.3368511199951172,-0.6542587280273438
1684592024004521000,20.39652099609375,-0.19615143537521362,0.36009693145751953,-0.7599444389343262
1684592024021394200,20.413394287109377,-0.29824286699295044,0.3070831298828125,-0.7510368824005127
1684592024038267000,20.430266845703127,-0.4529073238372803,0.3618755340576172,-0.8111293315887451
1684592024055140400,20.447140380859373,-0.5749412775039673,0.4192352294921875,-0.8677105903625488
1684592024072013300,20.464013427734375,-0.6712784767150879,0.4787158966064453,-0.8555111885070801
1684592024088886300,20.48088623046875,-0.9178446531295776,0.4310483932495117,-0.6685395240783691
1684592024105761800,20.49776171875,-1.059160828590393,0.5481777191162109,-0.6830873489379883
1684592024122630100,20.514630126953126,-1.2140889167785645,0.575129508972168,-0.46813130378723145
1684592024139505700,20.531505615234376,-1.0284544229507446,0.4836263656616211,-0.5198397636413574
1684592024156379000,20.54837890625,-1.0778506994247437,0.2520742416381836,-0.4410548210144043
1684592024173251800,20.565251953125,-1.2741634845733643,0.0941009521484375,-0.36585211753845215
1684592024190131200,20.582131103515625,-1.4811326265335083,0.22601318359375,-0.1896071434020996
1684592024206998000,20.598998046875,-1.3463932275772095,0.35625362396240234,-0.051523447036743164
1684592024223871000,20.61587109375,-1.178532361984253,0.4440345764160156,-0.06081366539001465
1684592024240744200,20.632744140625,-0.9939424991607666,0.4411287307739258,-0.27736735343933105
1684592024257617000,20.649616943359376,-1.0819851160049438,0.34801578521728516,-0.7637286186218262
1684592024274490400,20.666490478515627,-1.1432998180389404,0.213134765625,-1.143725872039795
1684592024291354600,20.683354736328123,-1.1313529014587402,0.4629344940185547,-1.344193696975708
1684592024308236500,20.700236572265624,-1.1044719219207764,0.7720966339111328,-1.6344678401947021
1684592024325109500,20.717109619140626,-1.21860933303833,0.6159181594848633,-1.7141151428222656
1684592024341982700,20.733982666015624,-0.40437257289886475,-0.27475929260253906,-2.0130159854888916
1684592024358852400,20.750852294921874,0.375149130821228,-2.105344772338867,-2.7961063385009766
1684592024375732200,20.767732177734374,-0.54172682762146,-3.536564826965332,-3.538022994995117
1684592024392601900,20.784601806640627,-0.5248667001724243,-3.8221683502197266,-3.913132429122925
1684592024409475000,20.80147509765625,-1.1233211755752563,-4.134799003601074,-3.6785004138946533
1684592024426347800,20.81834765625,-2.6245791912078857,-3.5465784072875977,-1.9699304103851318
1684592024443221000,20.835220947265626,-2.359063148498535,-1.9859418869018555,-0.16724514961242676
1684592024460094200,20.85209423828125,-1.7558784484863281,-0.7907276153564453,1.1337599754333496
1684592024476967400,20.868967529296874,-2.7088165283203125,-0.8126182556152344,1.7806881666183472
1684592024493840100,20.885840087890625,-3.3682491779327393,-1.044316291809082,2.1672849655151367
1684592024510713300,20.90271337890625,-1.8757271766662598,-1.0907325744628906,2.306091785430908
1684592024527586600,20.919586669921873,0.38177406787872314,-1.4514379501342773,2.324526309967041
1684592024544459300,20.936459228515623,2.4729394912719727,-1.7403602600097656,2.3694980144500732
1684592024561332700,20.953332763671874,4.4373674392700195,-2.3424034118652344,2.1893625259399414
1684592024578205700,20.970205810546876,5.389312744140625,-2.484752655029297,0.5903311967849731
1684592024595079000,20.987078857421874,3.708346366882324,-1.6371946334838867,-0.9615471363067627
1684592024611951900,21.003951904296876,0.9532442092895508,-1.4843931198120117,-1.7026536464691162
1684592024628824800,21.020824951171875,-1.1338653564453125,-1.3386163711547852,-1.8430246114730835
1684592024645697800,21.03769775390625,-1.5042016506195068,-1.035660743713379,-1.4465092420578003
1684592024662571300,21.0545712890625,-0.34149694442749023,-0.14869403839111328,-0.02424788475036621
1684592024679444200,21.0714443359375,0.5890130996704102,1.0176782608032227,1.7526516914367676
1684592024696317200,21.088317138671876,1.0296094417572021,1.0362772941589355,2.797544479370117
1684592024713190100,21.105190185546874,1.5519859790802002,0.5311708450317383,3.107495069503784
1684592024730066700,21.122066650390625,2.1859467029571533,-0.2920722961425781,2.895078182220459
1684592024746936300,21.138936279296875,2.1348748207092285,-1.3513202667236328,2.265855550765991
1684592024763809500,21.1558095703125,1.6562385559082031,-1.6908836364746094,1.3980581760406494
1684592024780682500,21.1726826171875,1.0526833534240723,-0.9676914215087891,0.4926883280277252
1684592024797555500,21.189555419921874,1.4639320373535156,-0.07840490341186523,-0.3610345125198364
1684592024814428700,21.2064287109375,2.2266130447387695,0.48914146423339844,-1.106619954109192
1684592024831301600,21.223301513671874,2.6491382122039795,0.9595026969909668,-1.2379992008209229
