time,seconds_elapsed,z,y,x
1684592003727229000,0.11922900390625,-1.179275393486023,-1.5398385524749756,-2.638479709625244
1684592003744063200,0.136063232421875,-1.453248381614685,-1.5818355083465576,-2.4216225147247314
1684592003760931800,0.152931884765625,-1.834122896194458,0.14874568581581116,-1.6175711154937744
1684592003777817600,0.169817626953125,-2.4242186546325684,2.883436679840088,-0.50335294008255
1684592003794688000,0.18668798828125,-2.9917125701904297,5.364771366119385,0.941343367099762
1684592003811561500,0.2035615234375,-1.9300287961959839,3.5136969089508057,1.8205311298370361
1684592003828434400,0.220434326171875,0.5016731023788452,3.634648323059082,0.9152288436889648
1684592003845305900,0.237305908203125,1.1968377828598022,2.3689353466033936,0.6061310172080994
1684592003862182700,0.2541826171875,0.803440511226654,2.001958131790161,0.44806966185569763
1684592003879054300,0.271054443359375,0.12965615093708038,2.071902275085449,0.2545780837535858
1684592003895927000,0.287927001953125,-0.44547349214553833,0.11621711403131485,-0.22189679741859436
1684592003912800500,0.304800537109375,-0.6688974499702454,-1.7679967880249023,-0.9256135821342468
1684592003929673200,0.321673095703125,-0.7506006956100464,-1.7177530527114868,-1.1785117387771606
1684592003946547000,0.338546875,-0.48869219422340393,-0.7658722996711731,-1.1355985403060913
1684592003963420000,0.355419921875,0.13011430203914642,-0.00733038317412138,-0.7394523620605469
1684592003980293400,0.37229345703125,0.6346889734268188,0.032681290060281754,-0.5111414790153503
1684592003997166000,0.389166015625,0.49556443095207214,0.008399397134780884,-0.6061310172080994
1684592004014040000,0.4060400390625,-0.003817907767370343,0.08445212244987488,-0.6441574096679688
1684592004030912800,0.422912841796875,-0.30741792917251587,0.3724750876426697,-0.6392704844474792
1684592004047789000,0.4397890625,-0.23228150606155396,0.8694139719009399,-0.6499606370925903
1684592004064659000,0.456658935546875,-0.1459967941045761,1.6174184083938599,-0.8301658630371094
1684592004081527300,0.47352734375,-0.08933904021978378,1.8252654075622559,-0.9198103547096252
1684592004098408000,0.490407958984375,0.03237585723400116,1.5786285400390625,-0.6632469296455383
1684592004115268900,0.507268798828125,0.052228979766368866,1.3329079151153564,-0.03039054572582245
1684592004132153300,0.5241533203125,-0.06459899991750717,1.3002266883850098,0.7076873779296875
1684592004149023700,0.541023681640625,-0.17058411240577698,1.409724235534668,0.9996809959411621
1684592004165894100,0.55789404296875,-0.3764457106590271,1.5373951196670532,0.6803511381149292
1684592004182775600,0.574775634765625,-0.6145304441452026,1.2321151494979858,0.11972958594560623
1684592004199644200,0.59164404296875,-0.5780312418937683,0.7478517889976501,-0.23167064785957336
1684592004216518100,0.60851806640625,-0.3654501438140869,0.03344487398862839,-0.375529408454895
1684592004233390800,0.625390869140625,-0.13897185027599335,-1.3258830308914185,-0.6006332635879517
1684592004250260700,0.6422607421875,-0.07131851464509964,-2.4355196952819824,-0.8090910315513611
1684592004267137300,0.65913720703125,0.13255776464939117,-2.732553005218506,-1.1207849979400635
1684592004284010800,0.6760107421875,0.21441370248794556,-2.281123638153076,-1.614822268486023
1684592004300883500,0.692883544921875,-0.024892758578062057,-1.091616153717041,-1.507462739944458
1684592004317757400,0.70975732421875,-0.4534147381782532,0.013286318629980087,-0.9323330521583557
1684592004334630000,0.7266298828125,-0.2542726695537567,1.146135926246643,-0.5734497308731079
1684592004351504000,0.74350390625,0.28848111629486084,1.8794796466827393,-0.5094616413116455
1684592004368376300,0.760376220703125,0.22770002484321594,1.474017858505249,-0.5983424782752991
1684592004385249800,0.777249755859375,-0.4992296099662781,0.7762570381164551,-0.6725626587867737
1684592004402108200,0.794108154296875,-1.317789077758789,0.5580254197120667,-0.7496843934059143
1684592004419000000,0.811,-1.8069393634796143,0.9669997096061707,-0.7414376735687256
1684592004435858400,0.8278583984375,-1.6329954862594604,1.7655532360076904,-0.4554000496864319
1684592004452743000,0.844742919921875,-0.978606104850769,1.860695481300354,-0.3219259977340698
1684592004469615600,0.86161572265625,-0.7811439037322998,1.5764905214309692,-0.34804046154022217
1684592004486485200,0.8784853515625,-1.0390818119049072,1.143081545829773,-0.3972151279449463
1684592004503365400,0.895365478515625,-1.2886202335357666,0.8188648819923401,-0.4306600093841553
1684592004520234800,0.91223486328125,-1.3655892610549927,0.964403510093689,-0.44226643443107605
1684592004537109000,0.92910888671875,-0.9934195876121521,1.1270463466644287,-0.5827654600143433
1684592004553982000,0.94598193359375,-0.5491678714752197,0.8866708874702454,-0.7556403279304504
1684592004570844400,0.962844482421875,-0.4697553813457489,0.4004221558570862,-0.7333437204360962
1684592004587728400,0.979728271484375,-0.6255260109901428,0.06200282275676727,-0.5103778839111328
1684592004604600300,0.996600341796875,-0.7678576111793518,0.16264286637306213,-0.18341228365898132
1684592004621475000,1.01347509765625,-0.7108944058418274,0.4749477207660675,0.06704246252775192
1684592004638347300,1.03034716796875,-0.5070181488990784,0.6582072973251343,-0.01664607785642147
1684592004655221000,1.047220947265625,-0.47968193888664246,0.5726861953735352,-0.21762074530124664
1684592004672094000,1.064093994140625,-0.6589708924293518,0.4014911949634552,-0.27580565214157104
1684592004688967000,1.080966796875,-0.8026769161224365,0.28787025809288025,-0.11499538272619247
1684592004705842200,1.09784228515625,-0.8788823485374451,0.40362921357154846,0.21838432550430298
1684592004722711600,1.114711669921875,-0.761443555355072,0.7064656615257263,0.4990769028663635
1684592004739586300,1.13158642578125,-0.5830708742141724,1.0010554790496826,0.5117523670196533
1684592004756449800,1.14844970703125,-0.5549710988998413,1.18492591381073,0.34956762194633484
1684592004773332000,1.16533203125,-0.5445863604545593,0.9456194043159485,0.20051652193069458
1684592004790202400,1.182202392578125,-0.6117815375328064,0.3556762933731079,0.10919216275215149
1684592004807078100,1.199078125,-0.746630072593689,-0.14874568581581116,0.01191187184303999
1684592004823954400,1.215954345703125,-0.8477282524108887,-0.32100969552993774,-0.016951510682702065
1684592004840825600,1.23282568359375,-0.8891143798828125,-0.06627888232469559,0.07223481684923172
1684592004857699300,1.24969921875,-0.7060074806213379,0.38759398460388184,0.2767219543457031
1684592004874571800,1.26657177734375,-0.5090034604072571,0.6366742849349976,0.4386012554168701
1684592004891446000,1.283446044921875,-0.46532660722732544,0.45433104038238525,0.39064833521842957
1684592004908318500,1.300318359375,-0.48640143871307373,-0.03848451003432274,0.11774427443742752
1684592004925189600,1.317189697265625,-0.3862195611000061,-0.4634940028190613,-0.15347988903522491
1684592004942067500,1.3340673828125,-0.09117163717746735,-0.5384777188301086,-0.14446963369846344
1684592004958938400,1.3509384765625,0.21120665967464447,-0.5899431109428406,0.07880161702632904
1684592004975811000,1.36781103515625,0.35735616087913513,-0.7974845767021179,0.20234911143779755
1684592004992684800,1.384684814453125,0.40164390206336975,-0.9808968901634216,0.235030397772789
1684592005009554700,1.4015546875,0.46929723024368286,-1.0033462047576904,0.36713001132011414
1684592005026431200,1.41843115234375,0.4833471179008484,-0.8872817754745483,0.5445863604545593
1684592005043303700,1.4353037109375,0.36102136969566345,-0.9364564418792725,0.5700899958610535
1684592005060177700,1.452177734375,0.1742493063211441,-0.9387471675872803,0.4014911949634552
1684592005077039900,1.469039794921875,0.09056077152490616,-0.9330966472625732,0.37598755955696106
1684592005093919700,1.485919677734375,0.09972374886274338,-0.8006916046142578,0.5477933883666992
1684592005110801200,1.50280126953125,0.13973543047904968,-0.6675229668617249,0.7675521969795227
1684592005127669000,1.5196689453125,0.12736541032791138,-0.711963415145874,0.9589056968688965
1684592005144544500,1.53654443359375,0.047189339995384216,-0.7438811659812927,1.078635334968567
1684592005161414100,1.5534140625,-0.08536841720342636,-0.6772968173027039,1.1154398918151855
1684592005178292200,1.570292236328125,-0.17119498550891876,-0.5254968404769897,1.142012596130371
1684592005195163100,1.5871630859375,-0.17989981174468994,-0.3842342495918274,1.1892019510269165
1684592005212035600,1.60403564453125,-0.1661553531885147,-0.3553708493709564,1.2231049537658691
1684592005228909300,1.620909423828125,-0.2096794992685318,-0.38698312640190125,1.1872166395187378
1684592005245782500,1.637782470703125,-0.3219259977340698,-0.35414913296699524,1.0696250200271606
1684592005262655700,1.65465576171875,-0.3897320330142975,-0.289702832698822,0.9286679029464722
1684592005279528700,1.67152880859375,-0.35964691638946533,-0.20693060755729675,0.8802568316459656
1684592005296402400,1.68840234375,-0.30146199464797974,-0.1547016203403473,0.8614727258682251
1684592005313275000,1.70527490234375,-0.2768746614456177,-0.2154827117919922,0.8309294581413269
1684592005330148600,1.722148681640625,-0.24342979490756989,-0.28557950258255005,0.8045095205307007
1684592005347012000,1.73901220703125,-0.20204368233680725,-0.31123584508895874,0.8663596510887146
1684592005363893500,1.7558935546875,-0.2638937830924988,-0.19822576642036438,0.9976956844329834
1684592005380767500,1.772767578125,-0.47708576917648315,0.00427605677396059,1.0838276147842407
1684592005397631000,1.789630859375,-0.5664247870445251,0.22968533635139465,1.0607675313949585
1684592005414514200,1.80651416015625,-0.5540547966957092,0.3139847218990326,0.9689850211143494
1684592005431388000,1.823387939453125,-0.613461434841156,0.33368512988090515,0.8269588351249695
1684592005448260600,1.840260498046875,-0.698066234588623,0.42898011207580566,0.6956228017807007
1684592005465132000,1.857132080078125,-0.6343835592269897,0.5386304259300232,0.6762278079986572
1684592005482006800,1.8740068359375,-0.5348125100135803,0.521984338760376,0.6536257863044739
1684592005498880800,1.890880859375,-0.43249258399009705,0.4434881806373596,0.47448956966400146
1684592005515753200,1.907753173828125,-0.3205515444278717,0.4225660264492035,0.19165897369384766
1684592005532627200,1.924627197265625,-0.25534167885780334,0.36789360642433167,-0.0913243517279625
1684592005549499400,1.94149951171875,-0.26404649019241333,0.23273965716362,-0.27870726585388184
1684592005566370600,1.95837060546875,-0.21441370248794556,0.14324790239334106,-0.1843285858631134
1684592005583248400,1.975248291015625,-0.19196440279483795,0.06765332818031311,0.10659598559141159
1684592005600120000,1.9921201171875,-0.31093040108680725,0.2617557644844055,0.26679539680480957
1684592005616992300,2.0089921875,-0.3686571717262268,0.4784601926803589,0.1647808998823166
1684592005633866200,2.0258662109375,-0.3341432809829712,0.5174028873443604,-0.10399980843067169
1684592005650741000,2.042740966796875,-0.3718642294406891,0.3220787048339844,-0.2883284091949463
1684592005667610000,2.059610107421875,-0.3107776939868927,0.20586158335208893,-0.2741257846355438
1684592005684474600,2.076474609375,-0.2483167201280594,0.370947927236557,-0.09315694868564606
1684592005701348400,2.093348388671875,-0.14874568581581116,1.0545061826705933,0.009162978269159794
1684592005718221000,2.110220947265625,-0.11438451707363129,1.552361249923706,-0.033139441162347794
1684592005735105300,2.127105224609375,-0.21639901399612427,1.7021759748458862,-0.26282477378845215
1684592005751978000,2.14397802734375,-0.2587014436721802,1.506240963935852,-0.42302417755126953
1684592005768847600,2.16084765625,-0.16814066469669342,1.2863295078277588,-0.337503045797348
1684592005785728500,2.177728515625,-0.08857546001672745,1.3442089557647705,-0.2379320114850998
1684592005802595000,2.194594970703125,-0.06734789162874222,1.6786576509475708,-0.34834590554237366
1684592005819473200,2.21147314453125,-0.2893974184989929,1.8944458961486816,-0.6772968173027039
1684592005836344300,2.22834423828125,-0.7055493593215942,1.5890132188796997,-0.9048441648483276
1684592005853217000,2.245217041015625,-0.892779529094696,1.1844676733016968,-0.7168503403663635
1684592005870080000,2.262080078125,-1.065043568611145,1.1832460165023804,-0.24556782841682434
1684592005886963500,2.27896337890625,-1.4795156717300415,1.8744399547576904,0.3323107063770294
1684592005903837000,2.2958369140625,-1.952783465385437,3.046232223510742,0.8628471493721008
1684592005920709600,2.312709716796875,-2.085952043533325,3.6664133071899414,1.0719157457351685
1684592005937583400,2.329583251953125,-2.0870211124420166,3.6939022541046143,0.6702718734741211
1684592005954456000,2.3464560546875,-2.2240076065063477,3.4235942363739014,-0.021074850112199783
1684592005971326200,2.363326171875,-2.462092399597168,3.1696269512176514,-0.5352706909179688
1684592005988205000,2.380205078125,-2.705216646194458,3.213151216506958,-0.7141014933586121
1684592006005077800,2.397077880859375,-2.8519771099090576,3.4796411991119385,-0.6075055003166199
1684592006021951500,2.413951416015625,-2.6813929080963135,3.7223074436187744,-0.25274550914764404
1684592006038822400,2.430822509765625,-2.3189971446990967,3.698330879211426,0.21365012228488922
1684592006055695400,2.4476953125,-2.1545217037200928,3.224452257156372,0.49754974246025085
1684592006072569000,2.464569091796875,-2.3206770420074463,2.705064058303833,0.4948008358478546
1684592006089441300,2.481441162109375,-2.4741568565368652,2.3356432914733887,0.3865249752998352
1684592006106313200,2.498313232421875,-2.3296873569488525,1.9191858768463135,0.19517144560813904
1684592006123190500,2.5151904296875,-1.9472856521606445,1.3678799867630005,0.027030786499381065
1684592006140061700,2.532061767578125,-1.567480206489563,0.8570439219474792,-0.07483099400997162
1684592006156934100,2.54893408203125,-1.320385217666626,0.370947927236557,-0.2243402600288391
1684592006173808000,2.56580810546875,-1.0253373384475708,-0.052381694316864014,-0.451582133769989
1684592006190681000,2.58268115234375,-0.7063129544258118,-0.24877487123012543,-0.5618433356285095
1684592006207543800,2.599543701171875,-0.38927388191223145,-0.11988230794668198,-0.34574973583221436
1684592006224427000,2.616427001953125,-0.042760565876960754,0.29565876722335815,0.18356500566005707
1684592006241300700,2.63330078125,0.31413745880126953,0.7269296646118164,0.7568620443344116
1684592006258173400,2.65017333984375,0.5572618246078491,0.8692612648010254,1.013578176498413
1684592006275047200,2.667047119140625,0.8275696635246277,0.8390234112739563,0.9671524167060852
1684592006291920100,2.683920166015625,0.9396634697914124,0.5019785165786743,0.6250678896903992
1684592006308793600,2.700793701171875,0.2344195395708084,-0.9010262489318848,-1.3403910398483276
1684592006325666300,2.717666259765625,-0.6154467463493347,-1.450346827507019,-3.112511157989502
1684592006342537200,2.734537109375,-0.43768495321273804,-1.0181596279144287,-3.104111671447754
1684592006359404500,2.751404541015625,0.5714644193649292,-0.29733866453170776,-1.9170478582382202
1684592006376286200,2.7682861328125,1.213025689125061,1.2919800281524658,-1.2793045043945312
1684592006393159000,2.785158935546875,1.577254056930542,2.484999895095825,-0.877966046333313
1684592006410032600,2.80203271484375,1.4599679708480835,2.6386325359344482,-0.33139440417289734
1684592006426905300,2.8189052734375,0.9043859839439392,1.9660698175430298,-0.008857546374201775
1684592006443779000,2.835779052734375,0.446389764547348,1.0471757650375366,-0.033597588539123535
1684592006460650200,2.852650146484375,0.24572055041790009,0.3078760802745819,-0.570853590965271
1684592006477525800,2.86952587890625,-0.09254608303308487,-0.11301007121801376,-1.454470157623291
1684592006494399000,2.88639892578125,-0.8388707041740417,-1.19912850856781,-1.9324722290039062
1684592006511281200,2.90328125,-1.493260145187378,-1.4162911176681519,-2.149176597595215
1684592006528144400,2.920144287109375,-2.085035800933838,-0.7307475209236145,-1.7744108438491821
1684592006545018000,2.93701806640625,-2.5506677627563477,0.02382374368607998,-0.7988590002059937
1684592006561890800,2.953890869140625,-2.789363384246826,0.1950187236070633,0.021074850112199783
1684592006578764500,2.9707646484375,-3.3324227333068848,-0.4538728892803192,0.28588494658470154
1684592006595637000,2.987636962890625,-3.811188220977783,-0.5913175344467163,-0.16829337179660797
1684592006612511000,3.004510986328125,-3.046079635620117,-1.115287184715271,-0.9960157871246338
1684592006629383400,3.021383544921875,-1.6001615524291992,-0.6641632318496704,-1.5948164463043213
1684592006646254800,3.0382548828125,-1.1928671598434448,-0.7414376735687256,-1.890017032623291
1684592006663132400,3.05513232421875,-1.3758212327957153,-1.131933331489563,-1.5395331382751465
1684592006680003600,3.072003662109375,-1.297935962677002,-1.616349458694458,-0.8689557909965515
1684592006696876300,3.088876220703125,-0.903775155544281,-1.1902709007263184,-0.5012149214744568
1684592006713750300,3.105750244140625,-0.4492913782596588,-0.6249151229858398,-0.26190847158432007
1684592006730616600,3.122616455078125,-0.22815817594528198,-0.4967861473560333,-0.07070764899253845
1684592006747485000,3.13948486328125,-0.12278391420841217,-0.3929390609264374,-0.03634648025035858
1684592006764369200,3.156369140625,-0.030695978552103043,0.11010845750570297,-0.23900102078914642
1684592006781242600,3.17324267578125,0.02428189292550087,0.5600107312202454,-0.6053674817085266
1684592006798115300,3.190115234375,0.15134187042713165,0.4518875777721405,-0.8378016948699951
1684592006814986500,3.206986572265625,0.46105054020881653,-0.07696902006864548,-0.6988298296928406
1684592006831862000,3.223862060546875,0.3937026560306549,0.1915062516927719,-0.22296582162380219
1684592006848737800,3.24073779296875,0.07864890247583389,1.1275044679641724,0.4512766897678375
1684592006865608000,3.25760791015625,-0.21349740028381348,1.9214766025543213,0.9433286786079407
1684592006882481700,3.274481689453125,-0.27000242471694946,2.5048530101776123,1.277166485786438
1684592006899354400,3.291354248046875,-0.4948008358478546,2.4297165870666504,1.5199854373931885
1684592006916228000,3.30822802734375,-1.0739010572433472,2.255467176437378,1.7794504165649414
1684592006933092400,3.32509228515625,-1.6702582836151123,2.0305161476135254,1.9593502283096313
1684592006949975800,3.341975830078125,-2.0893118381500244,1.9375118017196655,2.113135576248169
1684592006966847000,3.358846923828125,-2.3157901763916016,1.8823812007904053,2.3374757766723633
1684592006983720700,3.375720703125,-2.5001187324523926,1.7849482297897339,2.479196548461914
1684592007000593400,3.392593505859375,-2.797304630279541,1.746311068534851,2.403907537460327
1684592007017467400,3.40946728515625,-3.266754627227783,1.4677565097808838,2.205223560333252
1684592007034339800,3.42633984375,-4.0016255378723145,0.7160868048667908,1.7608190774917603
1684592007051213800,3.4432138671875,-3.587764263153076,-0.6827946305274963,1.713935136795044
1684592007068086300,3.460086181640625,-1.7676912546157837,-2.492788314819336,2.624429702758789
1684592007084946700,3.47694677734375,0.5992587804794312,-2.6844472885131836,3.6161694526672363
1684592007101832700,3.493832763671875,1.4136948585510254,3.0631837844848633,2.766303300857544
1684592007118706700,3.510706787109375,0.655458390712738,5.986326694488525,0.4332561790943146
1684592007135579000,3.527578857421875,0.22418753802776337,1.620778203010559,-0.02825251780450344
1684592007152452900,3.544452880859375,-0.1264491081237793,-2.473088026046753,-0.230448916554451
1684592007169325300,3.5613251953125,-0.27580565214157104,-2.568077564239502,-0.9537133574485779
1684592007186196500,3.578196533203125,-0.10445795953273773,-1.909564733505249,-1.3280210494995117
1684592007203074300,3.59507421875,0.11545353382825851,-1.51158607006073,-1.1688905954360962
1684592007219945200,3.6119453125,0.38240164518356323,-0.9903652667999268,-0.8439103364944458
1684592007236818200,3.628818115234375,0.46960264444351196,-0.475253164768219,-0.4717406928539276
1684592007253692000,3.64569189453125,0.35903605818748474,0.14614951610565186,-0.10766500234603882
1684592007270564600,3.662564697265625,0.2594650089740753,1.078940749168396,0.08445212244987488
1684592007287438300,3.679438232421875,0.2638937830924988,1.6281086206436157,0.16462817788124084
1684592007304310800,3.696310791015625,0.16172657907009125,1.4005613327026367,0.235030397772789
1684592007321184500,3.7131845703125,0.06322455406188965,0.654542088508606,0.35934147238731384
1684592007338057200,3.73005712890625,-0.007941247895359993,0.044745877385139465,0.5737552046775818
1684592007354931000,3.746930908203125,-0.05161811411380768,-0.21120665967464447,0.5816964507102966
1684592007371804200,3.76380419921875,0.024587325751781464,-0.2837468981742859,0.5372560024261475
1684592007388677000,3.780677001953125,0.06368270516395569,0.4732678532600403,0.7183775305747986
1684592007405550000,3.797550048828125,-0.42562034726142883,1.1186469793319702,0.5233588218688965
1684592007422423600,3.814423583984375,-1.2385293245315552,1.2864822149276733,0.18707747757434845
1684592007439306500,3.831306396484375,-1.5250251293182373,1.1230757236480713,-0.058795779943466187
1684592007456181800,3.848181640625,-1.1136072874069214,1.1785117387771606,-0.16493362188339233
1684592007473044500,3.86504443359375,-0.30482175946235657,1.3003793954849243,-0.19562959671020508
1684592007489916400,3.88191650390625,0.5791002511978149,1.0910053253173828,-0.1976149082183838
1684592007506789000,3.8987890625,1.1261301040649414,0.45891252160072327,-0.15485434234142303
1684592007523660300,3.915660400390625,1.233642339706421,-0.384845107793808,0.02321287989616394
1684592007540538000,3.9325380859375,1.1665998697280884,-1.1119275093078613,0.4709770977497101
1684592007557409000,3.949408935546875,1.0444267988204956,-1.545336365699768,1.0925325155258179
1684592007574281700,3.96628173828125,0.8210029006004333,-1.613753318786621,1.538464069366455
1684592007591155700,3.98315576171875,0.49464812874794006,-1.3393220901489258,1.6099354028701782
1684592007608028200,4.000028076171875,0.1999056488275528,-0.8604037165641785,1.4492777585983276
1684592007624902000,4.01690185546875,0.030237829312682152,-0.1713477075099945,1.353830099105835
1684592007641774600,4.033774658203125,-0.023060163483023643,0.5568036437034607,1.3646728992462158
1684592007658648000,4.05064794921875,0.04886921867728233,1.1210904121398926,1.2090550661087036
1684592007675520800,4.067520751953125,0.2171625941991806,1.3602441549301147,0.9034696817398071
1684592007692394500,4.08439453125,0.37140607833862305,1.1191051006317139,0.6841690540313721
1684592007709267200,4.10126708984375,0.4331034719944,0.32162055373191833,0.5248859524726868
1684592007726138600,4.118138671875,0.3819434940814972,-0.5653557777404785,0.14706580340862274
1684592007743016200,4.13501611328125,0.2721404731273651,-1.1317806243896484,-0.4360050559043884
1684592007759887400,4.151887451171875,0.3933972120285034,-1.2512047290802002,-0.7841982841491699
1684592007776760000,4.168760009765625,0.5125159621238708,-1.1746938228607178,-0.868803083896637
1684592007793633500,4.185633544921875,0.47678032517433167,-1.0432051420211792,-0.884227454662323
1684592007810503700,4.202503662109375,0.41202861070632935,-0.8332201838493347,-0.8660541772842407
1684592007827380000,4.2193798828125,0.3631593883037567,-0.5285511612892151,-0.7469354867935181
1684592007844252700,4.236252685546875,0.30375275015830994,-0.22510384023189545,-0.5302310585975647
1684592007861126400,4.25312646484375,0.1898263692855835,0.04993823543190956,-0.31154128909111023
1684592007877999000,4.2699990234375,0.06780604273080826,0.2483167201280594,-0.166460782289505
1684592007894872600,4.28687255859375,-0.0013744467869400978,0.36911532282829285,-0.10308351367712021
1684592007911745500,4.30374560546875,0.016798794269561768,0.4158465266227722,-0.09743300825357437
1684592007928619000,4.320618896484375,0.02626720629632473,0.3459024429321289,-0.10262536257505417
1684592007945491700,4.33749169921875,-0.016951510682702065,0.17318029701709747,-0.07925976812839508
1684592007962365400,4.354365478515625,-0.07895433157682419,-0.008399397134780884,-0.022143865004181862
1684592007979238100,4.371238037109375,-0.11988230794668198,-0.08384125679731369,0.04046982154250145
1684592007996112100,4.388112060546875,-0.1661553531885147,-0.03695734590291977,0.10277807712554932
1684592008012973800,4.404973876953125,-0.20097467303276062,0.0933096632361412,0.18524488806724548
1684592008029864000,4.421864013671875,-0.2002110779285431,0.2525927722454071,0.28527405858039856
1684592008046720500,4.438720458984375,-0.17379115521907806,0.3727805018424988,0.37522396445274353
1684592008063605200,4.455605224609375,-0.15225815773010254,0.4129449129104614,0.4251621961593628
1684592008080477200,4.472477294921875,-0.11988230794668198,0.39248090982437134,0.42867469787597656
1684592008097348400,4.489348388671875,-0.09376781433820724,0.34865134954452515,0.38087448477745056
1684592008114221800,4.506221923828125,-0.03741549700498581,0.28588494658470154,0.3303253948688507
1684592008131102700,4.523102783203125,0.014508049935102463,0.2076941877603531,0.32039880752563477
1684592008147969800,4.5399697265625,0.0019853119738399982,0.10201449692249298,0.3124575614929199
1684592008164843800,4.55684375,-0.0705549344420433,0.012217304669320583,0.2704605758190155
1684592008181716200,4.57371630859375,-0.08918632566928864,-0.014049900695681572,0.23915374279022217
1684592008198590000,4.59058984375,-0.06658431142568588,0.0065668015740811825,0.2275473028421402
1684592008215463000,4.607462890625,-0.06887505948543549,0.019547687843441963,0.24923302233219147
1684592008232336600,4.624336669921875,-0.09972374886274338,0.015577063895761967,0.27290403842926025
1684592008249209000,4.641208984375,-0.15775595605373383,0.02428189292550087,0.2509129047393799
1684592008266083800,4.658083740234375,-0.21594086289405823,0.010690141469240189,0.1941024363040924
1684592008282958800,4.674958740234375,-0.2444988191127777,-0.043676864355802536,0.14065171778202057
1684592008299829000,4.6918291015625,-0.27947086095809937,-0.16584990918636322,0.09865473955869675
1684592008316701700,4.70870166015625,-0.3223841190338135,-0.3058907687664032,0.05100724846124649
1684592008333575700,4.72557568359375,-0.3179553747177124,-0.3689626157283783,-0.019394971430301666
1684592008350437600,4.742437744140625,-0.26419922709465027,-0.35262197256088257,-0.07208210229873657
1684592008367311000,4.75931103515625,-0.21563543379306793,-0.31291571259498596,-0.0679587572813034
1684592008384199700,4.77619970703125,-0.21762074530124664,-0.27947086095809937,-0.05803219974040985
1684592008401064000,4.79306396484375,-0.2779437005519867,-0.23258693516254425,-0.09010262042284012
1684592008417941000,4.80994091796875,-0.32650747895240784,-0.19807305932044983,-0.11820242553949356
1684592008434814500,4.826814453125,-0.43707409501075745,-0.15347988903522491,-0.15103642642498016
1684592008451686000,4.843685791015625,-0.44593164324760437,-0.11239920556545258,-0.12858712673187256
1684592008468560000,4.860559814453125,-0.3761402666568756,-0.16019940376281738,-0.048716504126787186
1684592008485436200,4.877436279296875,-0.265573650598526,-0.2721404731273651,0.07238753139972687
1684592008502307300,4.894307373046875,-0.19822576642036438,-0.16081027686595917,0.09208793938159943
1684592008519179800,4.9111796875,-0.05619960278272629,0.2047925740480423,-0.03191770985722542
1684592008536053500,4.928053466796875,0.07360926270484924,0.45204028487205505,-0.0328340083360672
1684592008552926500,4.944926513671875,0.05207626149058342,0.39248090982437134,0.2710714638233185
1684592008569800000,4.961800048828125,-0.12751811742782593,0.6956228017807007,0.6571382880210876
1684592008586673000,4.9786728515625,-0.44654250144958496,2.2574524879455566,0.5922338366508484
1684592008603546400,4.99554638671875,-0.8037459254264832,3.6758816242218018,-0.005497787147760391
1684592008620419000,5.012419189453125,-0.942259669303894,3.263394832611084,-0.6921103000640869
1684592008637292800,5.029292724609375,-0.8463537693023682,1.9999728202819824,-1.5836681127548218
1684592008654165500,5.04616552734375,-0.5164865851402283,1.255022644996643,-2.5141687393188477
1684592008671039200,5.063039306640625,-0.007788531947880983,0.8888089060783386,-3.1088459491729736
1684592008687909000,5.0799091796875,0.4193589985370636,0.5455026626586914,-3.297297954559326
1684592008704788500,5.09678857421875,0.6206390857696533,0.02626720629632473,-3.084258556365967
1684592008721654800,5.11365478515625,0.6429356932640076,-0.475253164768219,-2.5809056758880615
1684592008738525000,5.13052490234375,0.5746715068817139,-0.5633704662322998,-2.0757200717926025
1684592008755404500,5.147404541015625,0.50335294008255,0.1589776873588562,-1.5326608419418335
1684592008772278300,5.1642783203125,0.5004513263702393,1.3113750219345093,-1.043968677520752
1684592008789151000,5.18115087890625,0.5395467281341553,2.4194846153259277,-0.6725626587867737
1684592008806022100,5.198022216796875,0.513126790523529,3.1891746520996094,-0.4889976382255554
1684592008822896400,5.214896484375,0.45952337980270386,3.576157808303833,-0.39385536313056946
1684592008839774500,5.2317744140625,0.5042692422866821,3.5190420150756836,-0.3413209617137909
1684592008856643600,5.2486435546875,0.6310238242149353,3.238349437713623,-0.2483167201280594
1684592008873517300,5.265517333984375,0.7528914213180542,2.7704265117645264,-0.09575312584638596
1684592008890379500,5.282379638671875,0.804051399230957,2.160630464553833,0.06062837690114975
1684592008907263700,5.299263671875,0.8332201838493347,1.549154281616211,0.168751522898674
1684592008924135700,5.3161357421875,0.8263479471206665,1.1183415651321411,0.18814650177955627
1684592008941010700,5.3330107421875,0.6925684809684753,1.021824836730957,0.18509216606616974
1684592008957882600,5.349882568359375,0.49495357275009155,1.0787880420684814,0.230448916554451
1684592008974756400,5.36675634765625,0.30772337317466736,1.13758385181427,0.32589662075042725
1684592008991629000,5.383629150390625,0.19654589891433716,1.189049243927002,0.4239404797554016
1684592009008502800,5.400502685546875,0.18280142545700073,1.2321151494979858,0.5128213763237
1684592009025375500,5.41737548828125,0.24617868661880493,1.2105822563171387,0.5835290551185608
1684592009042250200,5.434250244140625,0.29657506942749023,1.0534371137619019,0.655458390712738
1684592009059121000,5.451120849609375,0.27458393573760986,0.7851145267486572,0.8112290501594543
1684592009075995400,5.467995361328125,0.22143864631652832,0.616973876953125,0.911410927772522
1684592009092868400,5.484868408203125,0.23258693516254425,0.5623014569282532,0.7040221691131592
1684592009109741800,5.501741943359375,0.37400224804878235,0.4008803069591522,0.19089539349079132
1684592009126612000,5.518612060546875,0.408974289894104,0.22846360504627228,-0.24266621470451355
1684592009143490800,5.53549072265625,0.2301434874534607,0.5313000679016113,-0.2646573781967163
1684592009160361000,5.55236083984375,0.12278391420841217,1.1826350688934326,0.0403171069920063
1684592009177234700,5.569234619140625,0.04688390716910362,1.488220453262329,0.3323107063770294
1684592009194104800,5.586104736328125,0.06780604273080826,1.301142930984497,0.5313000679016113
1684592009210983400,5.6029833984375,0.07651086896657944,0.7576256394386292,0.6632469296455383
1684592009227853600,5.619853515625,-0.19914206862449646,-0.26022860407829285,0.7408268451690674
1684592009244727300,5.636727294921875,-0.6513350605964661,-1.209971308708191,0.8051204085350037
1684592009261599500,5.653599609375,-0.5641340613365173,-1.233642339706421,0.5296201705932617
1684592009278474500,5.670474609375,0.2015855312347412,-0.11514809727668762,-0.20326541364192963
1684592009295347200,5.68734716796875,0.546571671962738,0.5152648091316223,-0.8093964457511902
1684592009312220000,5.704219970703125,0.4260784983634949,-0.18356500566005707,-0.5309945940971375
1684592009329092600,5.721092529296875,0.13087788224220276,-1.1365147829055786,0.026572637259960175
1684592009345966300,5.73796630859375,-0.11698069423437119,-1.718058466911316,0.4651738703250885
1684592009362839000,5.754839111328125,-0.22678372263908386,-1.8402315378189087,0.6979135274887085
1684592009379710500,5.77171044921875,-0.3384193480014801,-1.6255123615264893,0.6841690540313721
1684592009396589000,5.788589111328125,-0.3646865487098694,-1.1001683473587036,0.4867068827152252
1684592009413458200,5.805458251953125,-0.2041817009449005,-0.6417139172554016,0.289244681596756
1684592009430324700,5.82232470703125,0.19822576642036438,-0.2538145184516907,0.5815436840057373
1684592009447205400,5.839205322265625,0.34544429183006287,-0.6368269920349121,2.3302981853485107
1684592009464078300,5.856078369140625,0.4050036668777466,-0.8596401214599609,3.478113889694214
1684592009480951800,5.872951904296875,0.29886582493782043,-0.1459967941045761,3.2041409015655518
1684592009497824500,5.889824462890625,0.10812314599752426,0.9726501703262329,1.6413949728012085
1684592009514688000,5.90668798828125,-0.040622539818286896,1.1155925989151,0.23105977475643158
1684592009531571000,5.923571044921875,-0.04886921867728233,0.2698497176170349,-0.05864306539297104
1684592009548444700,5.940444580078125,0.12003502249717712,-0.8181012868881226,0.347276896238327
1684592009565317000,5.957317138671875,0.2984076738357544,-1.2518155574798584,0.5781839489936829
1684592009582190800,5.97419091796875,0.3937026560306549,-1.261742115020752,0.6140722632408142
1684592009599063600,5.9910634765625,0.34895676374435425,-1.2179125547409058,0.6464481353759766
1684592009615937300,6.007937255859375,0.22663100063800812,-1.1244502067565918,0.7330383062362671
1684592009632810500,6.024810546875,0.0734565481543541,-0.9272934198379517,0.8866708874702454
1684592009649683700,6.04168359375,-0.008399397134780884,-0.7199047207832336,1.0836749076843262
1684592009666553600,6.0585537109375,-0.04092797264456749,-0.561079740524292,1.2680035829544067
1684592009683432700,6.0754326171875,-0.11759155988693237,-0.3507893681526184,1.257924199104309
1684592009700302800,6.092302734375,-0.3065016269683838,-0.033139441162347794,0.7386888265609741
1684592009717176300,6.10917626953125,-0.5166392922401428,0.10384709388017654,-0.0959058403968811
1684592009734046700,6.126046630859375,-0.5007568001747131,0.06185010448098183,-0.6478226184844971
1684592009750925800,6.14292578125,-0.14477506279945374,-0.17501288652420044,-0.7231117486953735
1684592009767795500,6.15979541015625,0.29275718331336975,-0.9509644508361816,-0.32650747895240784
1684592009784669200,6.176669189453125,0.5253441333770752,-1.7409659624099731,0.03039054572582245
1684592009801542000,6.1935419921875,0.579405665397644,-1.881770372390747,0.012828170321881771
1684592009818415600,6.21041552734375,0.554818332195282,-1.7214182615280151,-0.16050484776496887
1684592009835288300,6.227288330078125,0.455705463886261,-1.1699596643447876,-0.6015495657920837
1684592009852162000,6.244162109375,0.3165809214115143,0.561079740524292,-1.6643023490905762
1684592009869034200,6.2610341796875,0.22113321721553802,2.2492058277130127,-2.568840980529785
1684592009885908500,6.277908447265625,0.30543261766433716,3.0133981704711914,-2.8767170906066895
1684592009902780700,6.29478076171875,0.5639813542366028,2.8400652408599854,-2.705216646194458
1684592009919654700,6.311654541015625,0.816421389579773,2.121840476989746,-2.3829853534698486
1684592009936524500,6.328524658203125,0.8072584271430969,1.3790283203125,-2.2435553073883057
1684592009953404000,6.34540380859375,0.5948300361633301,0.5679519772529602,-2.2745566368103027
1684592009970260500,6.362260498046875,0.3448334336280823,-0.22937989234924316,-2.3289237022399902
1684592009987147500,6.3791474609375,0.10735956579446793,-0.831845760345459,-2.2481367588043213
1684592010004020500,6.3960205078125,-0.06261368840932846,-1.0529789924621582,-1.9153679609298706
1684592010020893700,6.412893798828125,-0.02535090781748295,-0.3680463135242462,-1.205847978591919
1684592010037766400,6.429766357421875,0.10797043144702911,1.4456125497817993,-0.5378668308258057
1684592010054639400,6.446639404296875,0.1313360333442688,2.9610166549682617,-0.31031954288482666
1684592010071511000,6.463510986328125,-0.015882495790719986,3.3906075954437256,-0.36193767189979553
1684592010088389000,6.48038916015625,-0.1973094791173935,3.1357240676879883,-0.3805690407752991
1684592010105259300,6.49725927734375,-0.26053401827812195,2.4376578330993652,-0.31383201479911804
1684592010122126800,6.514126953125,-0.13286319375038147,1.4816536903381348,-0.13454307615756989
1684592010139001900,6.531001953125,0.16493362188339233,0.5862779021263123,0.11621711403131485
1684592010155879200,6.547879150390625,0.4628831446170807,-0.03695734590291977,0.32788193225860596
1684592010172738800,6.56473876953125,0.6123924255371094,-0.38026362657546997,0.48716503381729126
1684592010189628200,6.581628173828125,0.5546656250953674,-0.4531092941761017,0.6513350605964661
1684592010206498300,6.598498291015625,0.37461310625076294,-0.24633140861988068,0.7507534027099609
1684592010223372000,6.6153720703125,0.21899518370628357,0.12171489745378494,0.6768386960029602
1684592010240244500,6.632244384765625,0.14508049190044403,0.3640756905078888,0.5871942043304443
1684592010257118500,6.649118408203125,0.15164729952812195,0.0455094613134861,0.698677122592926
1684592010273993000,6.665992919921875,0.22296582162380219,-0.6505714654922485,0.7916813492774963
1684592010290863000,6.682863037109375,0.36880987882614136,-0.8686503767967224,0.6104071140289307
1684592010307737300,6.6997373046875,0.48579058051109314,-0.4547891616821289,0.3182607889175415
1684592010324611000,6.716611083984375,0.3338378667831421,0.32268956303596497,0.16233743727207184
1684592010341483500,6.7334833984375,0.128434419631958,0.9556986689567566,0.25473082065582275
1684592010358357500,6.750357421875,0.12538009881973267,1.2428053617477417,0.5042692422866821
1684592010375230200,6.767230224609375,0.16798794269561768,1.0819950103759766,0.8304712772369385
1684592010392104000,6.78410400390625,0.009621127508580685,0.3439171314239502,1.130406141281128
1684592010408976400,6.800976318359375,-0.3139847218990326,-0.5991060733795166,1.3548991680145264
1684592010425849900,6.817849853515625,-0.5612324476242065,-1.1775954961776733,1.469894528388977
1684592010442723300,6.834723388671875,-0.5273294448852539,-0.53328537940979,1.3394747972488403
1684592010459596500,6.851596435546875,-0.21288654208183289,1.3368785381317139,0.8938485980033875
1684592010476469200,6.86846923828125,-0.16401731967926025,2.2212586402893066,0.43646320700645447
1684592010493343000,6.885343017578125,-0.23594669997692108,1.1882855892181396,0.4086688458919525
1684592010510200800,6.902200927734375,-0.1670716404914856,-0.5306891798973083,0.5803219676017761
1684592010527089200,6.919089111328125,0.04993823543190956,-1.179275393486023,0.4017966091632843
1684592010543962000,6.935962158203125,0.23625212907791138,-0.9659306406974792,-0.016951510682702065
1684592010560835600,6.952835693359375,0.2177734673023224,-0.6415612101554871,-0.35705074667930603
1684592010577708300,6.969708251953125,0.13545936346054077,-0.4547891616821289,-0.4712825417518616
1684592010594572800,6.98657275390625,0.22220222651958466,-0.37888917326927185,-0.27611109614372253
1684592010611455000,7.003455078125,0.4489859640598297,-0.6165157556533813,0.2597704529762268
1684592010628328400,7.020328369140625,0.5499314665794373,-1.1882855892181396,0.9746354818344116
1684592010645201000,7.037200927734375,0.5508477091789246,-1.3393220901489258,1.2657127380371094
1684592010662075000,7.054074951171875,0.4363104999065399,-1.2692252397537231,1.3391693830490112
1684592010678947600,7.070947509765625,0.23350323736667633,-1.2557861804962158,1.383457064628601
1684592010695821000,7.087821044921875,0.12767083942890167,-1.2324206829071045,1.3565789461135864
1684592010712694000,7.104694091796875,0.1866193264722824,-1.1546880006790161,1.3019065856933594
1684592010729567200,7.121567138671875,0.20433442294597626,-0.8914051055908203,0.9260717034339905
1684592010746440200,7.138440185546875,0.1592831164598465,-0.5209153294563293,0.16539175808429718
1684592010763314000,7.15531396484375,0.11667526513338089,-0.46868637204170227,-0.39675697684288025
1684592010780186600,7.1721865234375,0.12629638612270355,-0.801913321018219,-0.48808133602142334
1684592010797060400,7.189060302734375,0.14278975129127502,-1.1788171529769897,-0.36942076683044434
1684592010813933000,7.20593310546875,0.1264491081237793,-1.395521640777588,-0.2632829248905182
1684592010830806500,7.222806640625,0.08307767659425735,-1.4427109956741333,-0.2093740701675415
1684592010847679200,7.23967919921875,0.028405234217643738,-1.4089607000350952,-0.13225232064723969
1684592010864553000,7.256552978515625,-0.05803219974040985,-1.3542882204055786,-0.009773843921720982
1684592010881425700,7.27342578125,-0.1719585657119751,-1.2350168228149414,0.07742717117071152
1684592010898299400,7.29029931640625,-0.26022860407829285,-1.0294606685638428,0.07757988572120667
1684592010915171800,7.307171875,-0.2909245789051056,-0.8032878041267395,0.03145955875515938
1684592010932035000,7.32403515625,-0.2961169183254242,-0.619111955165863,-0.012064588256180286
1684592010948918500,7.34091845703125,-0.3032945990562439,-0.502436637878418,-0.05345070734620094
1684592010965792000,7.3577919921875,-0.2900082767009735,-0.4280638098716736,-0.08857546001672745
1684592010982664700,7.374664794921875,-0.23900102078914642,-0.3917173445224762,-0.1137736514210701
1684592010999538400,7.391538330078125,-0.15073099732398987,-0.39584067463874817,-0.14156801998615265
1684592011016411000,7.408410888671875,-0.0679587572813034,-0.4824308156967163,-0.14187344908714294
1684592011033284900,7.425284912109375,-0.04337143152952194,-0.660803496837616,-0.11682797968387604
1684592011050157300,7.4421572265625,-0.06368270516395569,-0.8747590184211731,-0.09544769674539566
1684592011067031000,7.459031005859375,-0.10583240538835526,-1.069166898727417,-0.08155050873756409
1684592011083901700,7.475901611328125,-0.13775011897087097,-1.239598274230957,-0.06352998316287994
1684592011100779800,7.49277978515625,-0.12140946835279465,-1.3570371866226196,-0.0403171069920063
1684592011117650200,7.509650146484375,-0.07681630551815033,-1.4256067276000977,-0.0025961773935705423
1684592011134523600,7.526523681640625,-0.04566217586398125,-1.4804319143295288,0.03390302136540413
1684592011151396600,7.543396728515625,0.013439035043120384,-1.4089607000350952,-0.0013744467869400978
1684592011168270300,7.560270263671875,0.14584407210350037,-1.2038626670837402,-0.0858265683054924
1684592011185142800,7.577142822265625,0.3225368559360504,-1.0221302509307861,-0.08765916526317596
1684592011202016800,7.594016845703125,0.4288274049758911,-1.068861484527588,0.07956519722938538
1684592011218889200,7.61088916015625,0.4576907753944397,-1.0134254693984985,0.11957687139511108
1684592011235763000,7.627762939453125,0.37629300355911255,0.027641652151942253,-0.778853178024292
1684592011252635600,7.6446357421875,0.07773260027170181,1.2814425230026245,-2.1183278560638428
1684592011269509400,7.66150927734375,-0.15683965384960175,1.5279266834259033,-2.765997886657715
1684592011286376200,7.678376220703125,-0.17470745742321014,1.1256719827651978,-2.8217391967773438
1684592011303255800,7.695255859375,-0.0705549344420433,0.49556443095207214,-2.6065618991851807
1684592011320128500,7.71212841796875,-0.010231993161141872,-0.06398813426494598,-2.31472110748291
1684592011337002200,7.729002197265625,-0.032681290060281754,-0.379652738571167,-1.9900462627410889
1684592011353875000,7.745875,-0.030695978552103043,-0.3355177342891693,-1.676366925239563
1684592011370748700,7.762748779296875,-0.03176499158143997,-0.08292495459318161,-1.4162911176681519
1684592011387621000,7.77962109375,-0.0780380368232727,0.15882496535778046,-1.1320860385894775
1684592011404494800,7.796494873046875,-0.1699732542037964,0.3949243724346161,-0.7765624523162842
1684592011421367600,7.813367431640625,-0.23411411046981812,0.7835873961448669,-0.4489859640598297
1684592011438241300,7.8302412109375,-0.21044307947158813,1.1731667518615723,-0.36972618103027344
1684592011455114000,7.847114013671875,-0.12461651116609573,1.256244421005249,-0.5283984541893005
1684592011471987700,7.86398779296875,-0.04841107130050659,1.0502300262451172,-0.6672175526618958
1684592011488860200,7.880860107421875,-0.001679879380390048,0.7431175708770752,-0.6177374720573425
1684592011505734000,7.89773388671875,0.02367102913558483,0.4167627990245819,-0.39217549562454224
1684592011522606600,7.914606689453125,0.043676864355802536,0.10461067408323288,-0.13469578325748444
1684592011539480300,7.931480224609375,0.04902193695306778,-0.0913243517279625,-0.025503624230623245
1684592011556353000,7.94835302734375,0.04917465150356293,-0.09376781433820724,-0.09728029370307922
1684592011573226800,7.965226806640625,0.05726861581206322,-0.018936822190880775,-0.2405281960964203
1684592011590089000,7.9820888671875,0.05146539583802223,-0.052381694316864014,-0.2704605758190155
1684592011606973200,7.99897314453125,0.07254024595022202,-0.14828753471374512,-0.1713477075099945
1684592011623846000,8.015845947265625,0.11988230794668198,-0.1788308024406433,-0.03176499158143997
1684592011640719600,8.0327197265625,0.15363261103630066,-0.05711590126156807,0.10461067408323288
1684592011657592000,8.049592041015625,0.1518000066280365,0.1950187236070633,0.24908030033111572
1684592011674466000,8.066466064453126,0.10125091671943665,0.3599523603916168,0.39736783504486084
1684592011691338800,8.0833388671875,0.07101308554410934,0.35659259557724,0.5126686692237854
1684592011708212200,8.100212158203124,0.07406741380691528,0.1186605766415596,0.5514585971832275
1684592011725085000,8.1170849609375,0.10720685124397278,-0.22647829353809357,0.570242702960968
1684592011741958400,8.13395849609375,0.15729780495166779,-0.5305364727973938,0.6407976150512695
1684592011758831400,8.150831298828125,0.20463985204696655,-0.6737843751907349,0.7099781036376953
1684592011775707100,8.16770703125,0.1837177276611328,-0.6052147150039673,0.7307475209236145
1684592011792575500,8.184575439453125,0.05451972410082817,-0.36682456731796265,0.6934847831726074
1684592011809451300,8.201451171875,-0.09865473955869675,-0.010842857882380486,0.6656904220581055
1684592011826324000,8.218323974609374,-0.1898263692855835,0.299018532037735,0.6956228017807007
1684592011843197700,8.23519775390625,-0.18219055235385895,0.4231768846511841,0.7470881938934326
1684592011860070400,8.2520703125,-0.09453139454126358,0.33078351616859436,0.7360926270484924
1684592011876944000,8.26894384765625,0.009468411095440388,0.11988230794668198,0.6238461136817932
1684592011893817000,8.285817138671876,0.05054909735918045,-0.039248090237379074,0.4607451260089874
1684592011910690600,8.302690673828126,-0.013897184282541275,-0.07147123664617538,0.337044894695282
1684592011927563000,8.31956298828125,0.007635815534740686,0.07696902006864548,0.3094032406806946
1684592011944436700,8.336436767578125,0.09010262042284012,0.24816401302814484,0.33689218759536743
1684592011961309400,8.353309326171875,0.002138028386980295,0.22357667982578278,0.3462078869342804
1684592011978172400,8.37017236328125,-0.15256360173225403,0.21991148591041565,0.3805690407752991
1684592011995056000,8.38705615234375,-0.20036379992961884,0.3804163336753845,0.47571131587028503
1684592012011929600,8.4039296875,-0.1108720451593399,0.5209153294563293,0.7157813310623169
1684592012028802300,8.42080224609375,-0.003817907767370343,0.5389358401298523,0.9225592613220215
1684592012045676000,8.437676025390624,0.04993823543190956,0.5641340613365173,0.9019425511360168
1684592012062548500,8.454548583984375,0.07590000331401825,0.6450737118721008,0.7722864151000977
1684592012079422200,8.471422119140625,0.021380282938480377,0.6600399017333984,0.7392996549606323
1684592012096295000,8.488294921875,-0.11194105446338654,0.5322163701057434,0.8397870063781738
1684592012113169000,8.5051689453125,-0.251218318939209,0.30283644795417786,0.8069530129432678
1684592012130033400,8.522033447265626,-0.15317445993423462,0.25534167885780334,0.5398521423339844
1684592012146927600,8.538927734375,0.13545936346054077,0.33948835730552673,0.280539870262146
1684592012163788000,8.5557880859375,0.4112650156021118,0.3254384696483612,0.22831088304519653
1684592012180661500,8.57266162109375,0.508087158203125,0.19104810059070587,0.3274237811565399
1684592012197534200,8.5895341796875,0.48319441080093384,0.09315694868564606,0.42760565876960754
1684592012214405000,8.606405029296875,0.4115704596042633,0.10293079167604446,0.4531092941761017
1684592012231283200,8.623283203125,0.2834414839744568,0.1748601794242859,0.4363104999065399
1684592012248154000,8.640154052734376,0.14737124741077423,0.2952006161212921,0.42271876335144043
1684592012265026800,8.65702685546875,0.05757404863834381,0.4795292317867279,0.39125919342041016
1684592012281900500,8.673900634765625,-0.00855211354792118,0.6582072973251343,0.3390302062034607
1684592012298773200,8.690773193359375,-0.053297992795705795,0.7715228199958801,0.28557950258255005
1684592012315646700,8.707646728515625,-0.06398813426494598,0.8257371187210083,0.24755313992500305
1684592012332520000,8.72452001953125,-0.0607810914516449,0.8417723178863525,0.24923302233219147
1684592012349393200,8.74139306640625,-0.03955352306365967,0.8080220222473145,0.2941316068172455
1684592012366263300,8.75826318359375,-0.003359758760780096,0.7186829447746277,0.3576616048812866
1684592012383139800,8.775139892578125,0.0682641938328743,0.5429064631462097,0.4129449129104614
1684592012400014800,8.792014892578125,0.18219055235385895,0.29016098380088806,0.4378376603126526
1684592012416886000,8.808885986328125,0.2756529450416565,-0.025045474991202354,0.44364088773727417
1684592012433759000,8.825759033203125,0.3191770911216736,-0.31093040108680725,0.41951170563697815
1684592012450632400,8.842632568359376,0.32757648825645447,-0.5022839307785034,0.3591887652873993
1684592012467505000,8.8595048828125,0.30115658044815063,-0.5618433356285095,0.2710714638233185
1684592012484379000,8.87637890625,0.266184538602829,-0.5285511612892151,0.194713294506073
1684592012501251600,8.89325146484375,0.21823160350322723,-0.484416127204895,0.15821409225463867
1684592012518125000,8.910125,0.16951510310173035,-0.4424191415309906,0.1371392458677292
1684592012534998000,8.926998046875,0.12767083942890167,-0.44394633173942566,0.13026700913906097
1684592012551871700,8.943871826171875,0.09468411654233932,-0.5248859524726868,0.14385876059532166
1684592012568744000,8.960743896484376,0.05314527451992035,-0.6846272349357605,0.17928895354270935
1684592012585618200,8.9776181640625,-0.009468411095440388,-0.8903360962867737,0.21868975460529327
1684592012602490600,8.99449072265625,-0.08475755155086517,-1.0554224252700806,0.25595253705978394
1684592012619364400,9.0113642578125,-0.16844609379768372,-1.1267409324645996,0.28099802136421204
1684592012636237000,9.028237060546875,-0.2915354371070862,-1.122464895248413,0.30970868468284607
1684592012653110800,9.04511083984375,-0.4173736870288849,-1.0661125183105469,0.346818745136261
1684592012669983000,9.06198291015625,-0.451582133769989,-0.9135489463806152,0.3107776939868927
1684592012686854400,9.0788544921875,-0.395077109336853,-0.6765332818031311,0.16814066469669342
1684592012703732500,9.095732421875,-0.3072652220726013,-0.49724429845809937,0.002138028386980295
1684592012720603400,9.112603271484375,-0.242513507604599,-0.4957171380519867,-0.09453139454126358
1684592012737476000,9.12947607421875,-0.17058411240577698,-0.574976921081543,-0.14156801998615265
1684592012754349800,9.146349853515625,-0.08277224004268646,-0.6230825781822205,-0.17043140530586243
1684592012771222500,9.163222412109375,0.03237585723400116,-0.7092145681381226,-0.15561792254447937
1684592012788096300,9.18009619140625,0.13118331134319305,-0.8506298661231995,-0.0887281745672226
1684592012804969000,9.196968994140626,0.16920967400074005,-0.9932668805122375,-0.03680463135242462
1684592012821842400,9.213842529296874,0.13347405195236206,-1.0018190145492554,-0.09743300825357437
1684592012838715100,9.230715087890625,0.13454307615756989,-0.7350236177444458,-0.3732386529445648
1684592012855588900,9.2475888671875,0.2565633952617645,-0.3549126982688904,-0.759916365146637
1684592012872461800,9.2644619140625,0.5331326723098755,-0.0705549344420433,-1.0378600358963013
1684592012889335300,9.281335205078125,0.8891143798828125,0.23105977475643158,-1.1945469379425049
1684592012906210300,9.298210205078124,1.1513283252716064,0.36483925580978394,-1.1592695713043213
1684592012923079400,9.315079345703126,1.0867292881011963,-0.01817324012517929,-0.849255383014679
1684592012939954400,9.331954345703124,0.7037167549133301,-0.4550946056842804,-0.4665483236312866
1684592012956828200,9.348828125,0.18799377977848053,-0.32940909266471863,-0.32039880752563477
1684592012973700900,9.365700927734375,-0.2675589919090271,0.741895854473114,-0.6126978397369385
1684592012990574600,9.38257470703125,-0.5775730609893799,2.467437505722046,-1.3967434167861938
1684592013007447000,9.399447021484375,-0.651945948600769,3.0337095260620117,-1.938886284828186
1684592013024321000,9.416321044921874,-0.5259549617767334,2.3652701377868652,-2.034792184829712
1684592013041193500,9.433193359375,-0.2942843437194824,1.4587461948394775,-1.922087550163269
1684592013058067200,9.450067138671875,-0.0607810914516449,1.0018190145492554,-1.775479793548584
1684592013074940000,9.46693994140625,0.1264491081237793,0.9517280459403992,-1.5905404090881348
1684592013091813600,9.483813720703125,0.13057245314121246,1.0068585872650146,-1.327257513999939
1684592013108686000,9.50068603515625,0.0403171069920063,0.9243918061256409,-1.0183123350143433
1684592013125560000,9.51756005859375,0.012522737495601177,0.47708576917648315,-0.5294674634933472
1684592013142432500,9.5344326171875,0.07299839705228806,-0.3543018400669098,0.08704829961061478
1684592013159306500,9.551306396484375,0.2496911734342575,-0.0656680166721344,0.001832595793530345
1684592013176179000,9.568178955078125,0.40362921357154846,1.0054842233657837,-0.5916230082511902
1684592013193053000,9.585052978515625,0.42470407485961914,1.5358679294586182,-0.8764389157295227
1684592013209925400,9.60192529296875,0.294437050819397,1.4718798398971558,-0.7513642311096191
1684592013226799000,9.618799072265626,0.14966198801994324,1.1885910034179688,-0.4095851480960846
1684592013243671800,9.635671875,0.06062837690114975,0.9317222237586975,-0.056352317333221436
1684592013260545500,9.652545654296874,0.0010690141934901476,0.9150761365890503,0.12782354652881622
1684592013277418200,9.669418212890625,-0.10735956579446793,1.10139000415802,0.12446379661560059
1684592013294291700,9.686291748046875,-0.2255619913339615,1.3419182300567627,0.014813481830060482
1684592013311157500,9.703157470703125,-0.3068070709705353,1.4066699743270874,-0.027183502912521362
1684592013328035300,9.720035400390625,-0.2915354371070862,1.2275336980819702,0.06688974797725677
1684592013344910800,9.736910888671876,-0.14385876059532166,0.9520334601402283,0.16508632898330688
1684592013361784300,9.753784423828124,-0.00733038317412138,0.7817547917366028,0.1644754707813263
1684592013378657500,9.770657470703124,-0.011759156361222267,0.7141014933586121,0.14095716178417206
1684592013395531000,9.787531005859375,-0.032528575509786606,0.7553348541259766,0.194713294506073
1684592013412403700,9.80440380859375,-0.01618792861700058,0.7751879692077637,0.30833423137664795
1684592013429277200,9.821277099609375,0.02382374368607998,0.6956228017807007,0.4411974251270294
1684592013446147300,9.838147216796875,0.08536841720342636,0.5199990272521973,0.5485569834709167
1684592013463026400,9.8550263671875,0.1823432743549347,0.3219259977340698,0.5928447246551514
1684592013479896300,9.871896240234374,0.27977627515792847,0.11209376901388168,0.5864306092262268
1684592013496770000,9.88877001953125,0.35246923565864563,-0.07177666574716568,0.5674937963485718
1684592013513643000,9.90564306640625,0.389426589012146,-0.2148718535900116,0.5441282391548157
1684592013530512400,9.922512451171874,0.36453384160995483,-0.26740625500679016,0.5427537560462952
1684592013547389000,9.939388916015625,0.26282477378845215,-0.09269879758358002,0.5775730609893799
1684592013564262700,9.9562626953125,0.17409659922122955,0.3605632185935974,0.5917757153511047
1684592013581135600,9.973135498046876,0.21319197118282318,0.7768678665161133,0.5439754724502563
1684592013598009000,9.990009033203124,0.2483167201280594,0.856433093547821,0.45952337980270386
1684592013614882000,10.006882080078125,0.275347501039505,0.7102835774421692,0.40026944875717163
1684592013631755800,10.023755859375,0.3361285924911499,0.5581781268119812,0.4395175576210022
1684592013648628200,10.040628173828125,0.3828597962856293,0.5233588218688965,0.6099489331245422
1684592013665502000,10.057501953125,0.28878653049468994,0.31444287300109863,0.8235990405082703
1684592013682374700,10.074374755859376,0.07773260027170181,-0.2168571650981903,0.9958630800247192
1684592013699248400,10.091248291015624,-0.02626720629632473,-0.7673994898796082,1.0702359676361084
1684592013716121000,10.10812109375,0.16019940376281738,-0.9248499870300293,0.9666942358016968
1684592013732994800,10.124994873046875,0.37430769205093384,-0.5684100985527039,0.7545713186264038
1684592013749867300,10.1418671875,0.38667771220207214,0.7556403279304504,0.4337143301963806
1684592013766741000,10.158740966796875,0.29107728600502014,2.0027217864990234,0.10399980843067169
1684592013783613700,10.17561376953125,0.22189679741859436,1.441641926765442,0.12431107461452484
1684592013800476700,10.1924765625,0.19715675711631775,-0.11789698898792267,0.2857322096824646
1684592013817360100,10.209360107421874,0.2574796974658966,-1.0126618146896362,0.12492194026708603
1684592013834233900,10.22623388671875,0.3396410644054413,-1.103833556175232,-0.16859880089759827
1684592013851106800,10.24310693359375,0.3822489380836487,-0.9205739498138428,-0.2831360399723053
1684592013867980000,10.25997998046875,0.32391130924224854,-0.8709411025047302,-0.21807889640331268
1684592013884852700,10.276852783203125,0.2171625941991806,-0.9280570149421692,0.006108652334660292
1684592013901726500,10.2937265625,0.152105450630188,-0.9001099467277527,0.27947086095809937
1684592013918599200,10.31059912109375,0.09666942805051804,-0.7799221873283386,0.5070181488990784
1684592013935473000,10.327472900390624,0.008704829961061478,-0.6630942225456238,0.6846272349357605
1684592013952343600,10.344343505859374,-0.02474004216492176,-0.6427829265594482,0.9100365042686462
1684592013969221000,10.36122119140625,0.021838432177901268,-0.8668177723884583,1.2504411935806274
1684592013986090800,10.3780908203125,0.08765916526317596,-1.1771373748779297,1.4691308736801147
1684592014002966800,10.394966796875,0.08338310569524765,-1.3187053203582764,1.434922456741333
1684592014019838500,10.41183837890625,0.018936822190880775,-1.278388261795044,1.207375168800354
1684592014036712200,10.428712158203124,0.04398229718208313,-0.8002334833145142,0.5061018466949463
1684592014053585000,10.4455849609375,0.15836681425571442,-0.3095559775829315,-0.3804163336753845
1684592014070448000,10.4624482421875,0.2773328125476837,-0.43768495321273804,-0.7961101531982422
1684592014087331000,10.4793310546875,0.3588833212852478,-1.0332785844802856,-0.7619016766548157
1684592014104204800,10.496204833984375,0.3810271918773651,-1.52578866481781,-0.6692028641700745
1684592014121077500,10.513077392578126,0.36880987882614136,-1.693013072013855,-0.6731734871864319
1684592014137951500,10.529951416015624,0.3539963960647583,-1.6661349534988403,-0.684779942035675
1684592014154823700,10.54682373046875,0.3222314119338989,-1.6015359163284302,-0.6090326309204102
1684592014171697700,10.56369775390625,0.23426681756973267,-1.5984816551208496,-0.40393465757369995
1684592014188570000,10.580570068359375,0.11224649101495743,-1.5925257205963135,-0.1267545372247696
1684592014205444000,10.597444091796875,0.012828170321881771,-1.4149166345596313,0.07223481684923172
1684592014222316500,10.614316650390625,-0.05467243865132332,-1.0926852226257324,0.17959438264369965
1684592014239190300,10.631190185546876,-0.12232576310634613,-0.7790058851242065,0.3000875413417816
1684592014256062700,10.648062744140624,-0.22296582162380219,-0.6000223755836487,0.483957976102829
1684592014272936700,10.664936767578125,-0.29168814420700073,-0.5326744914054871,0.6621779203414917
1684592014289806800,10.681806884765624,-0.2993239760398865,-0.46181413531303406,0.718224823474884
1684592014306685700,10.698685791015626,-0.30314189195632935,-0.3914119005203247,0.6444628238677979
1684592014323555800,10.715555908203125,-0.30573806166648865,-0.39446622133255005,0.526107668876648
1684592014340429300,10.73242919921875,-0.299476683139801,-0.49296826124191284,0.413097620010376
1684592014357302000,10.749302001953126,-0.2597704529762268,-0.6304129362106323,0.31383201479911804
1684592014374176000,10.766176025390624,-0.18127426505088806,-0.6858489513397217,0.18051068484783173
1684592014391048400,10.78304833984375,-0.11789698898792267,-0.6284276247024536,-0.009468411095440388
1684592014407922200,10.799922119140625,-0.1189660057425499,-0.5326744914054871,-0.19807305932044983
1684592014424795000,10.816794921875,-0.1310305893421173,-0.4541783034801483,-0.337503045797348
1684592014441668600,10.833668701171876,-0.1270599663257599,-0.40393465757369995,-0.4245513379573822
1684592014458541300,10.850541259765626,-0.11178833991289139,-0.34804046154022217,-0.46792277693748474
1684592014475414800,10.867414794921874,-0.07788532227277756,-0.2776382565498352,-0.46441030502319336
1684592014492279000,10.884279052734374,-0.05543602257966995,-0.21914790570735931,-0.43508878350257874
1684592014509161200,10.9011611328125,-0.055283304303884506,-0.2765692472457886,-0.3724750876426697
1684592014526036500,10.918036376953125,-0.10552696883678436,-0.41263946890830994,-0.2681698501110077
1684592014542905300,10.9349052734375,-0.08307767659425735,-0.41233405470848083,-0.22602014243602753
1684592014559780400,10.9517802734375,-0.010537425056099892,-0.2194533348083496,-0.3124575614929199
1684592014576653800,10.96865380859375,0.13439035415649414,0.04245513305068016,-0.36621370911598206
1684592014593526500,10.985526611328124,0.35246923565864563,0.3068070709705353,-0.3393356502056122
1684592014610390000,11.00239013671875,0.5077817440032959,0.46899178624153137,-0.2557998299598694
1684592014627273000,11.01927294921875,0.327729195356369,0.19425514340400696,0.023976460099220276
1684592014644143900,11.036143798828125,0.0685696229338646,0.4680754840373993,0.011453723534941673
1684592014661022200,11.053022216796874,-0.16065755486488342,2.0693061351776123,-0.7773260474205017
1684592014677893000,11.06989306640625,-0.5363397002220154,3.4967453479766846,-1.7869335412979126
1684592014694765800,11.086765869140624,-0.7622070908546448,3.2366695404052734,-2.22477126121521
1684592014711639600,11.1036396484375,-0.7415903806686401,1.8791742324829102,-2.2540926933288574
1684592014728512000,11.120511962890625,-0.5566509366035461,0.6236934065818787,-2.249511241912842
1684592014745385700,11.1373857421875,-0.19517144560813904,-0.035582900047302246,-2.2511911392211914
1684592014762258700,11.1542587890625,0.25503623485565186,-0.2929098904132843,-2.1478021144866943
1684592014779132200,11.171132080078126,0.5051855444908142,-0.5432119369506836,-1.9634735584259033
1684592014796004900,11.1880048828125,0.42042800784111023,-0.9301950335502625,-1.7366899251937866
1684592014812878800,11.20487890625,0.18325957655906677,-1.1582005023956299,-1.3990341424942017
1684592014829751300,11.221751220703124,-0.10583240538835526,-0.683863639831543,-0.40362921357154846
1684592014846624800,11.238624755859375,-0.14523321390151978,1.0143417119979858,0.12476922571659088
1684592014863497700,11.255497802734375,-0.033139441162347794,2.2820398807525635,-0.05513058975338936
1684592014880371200,11.27237109375,-0.05726861581206322,2.398715019226074,-0.32299500703811646
1684592014897244000,11.289243896484376,-0.10690141469240189,1.9811886548995972,-0.39767327904701233
1684592014914118000,11.306117919921874,-0.08368854224681854,1.5305228233337402,-0.22296582162380219
1684592014930990600,11.322990478515624,-0.03375030308961868,1.0551170110702515,0.08429940044879913
1684592014947863800,11.33986376953125,-0.04963280260562897,0.5807801485061646,0.3003929853439331
1684592014964736800,11.35673681640625,-0.1258382350206375,0.4584543704986572,0.3303253948688507
1684592014981610500,11.373610595703125,-0.20815233886241913,0.7258606553077698,0.24007004499435425
1684592014998483000,11.39048291015625,-0.16035212576389313,1.0651962757110596,0.15561792254447937
1684592015015356700,11.407356689453126,-0.00809396430850029,1.078635334968567,0.11820242553949356
1684592015032229600,11.424229736328124,0.09346238523721695,0.7718282341957092,0.11636982858181
1684592015049103000,11.44110302734375,0.14217889308929443,0.4473060667514801,0.164170041680336
1684592015065975800,11.457975830078125,0.15775595605373383,0.32100969552993774,0.24327708780765533
1684592015082849300,11.474849365234375,0.15913039445877075,0.3309362530708313,0.36361753940582275
1684592015099722200,11.49172216796875,0.17302757501602173,0.3006984293460846,0.5294674634933472
1684592015116596000,11.508595947265626,0.1817324161529541,0.14309518039226532,0.6359107494354248
1684592015133468700,11.52546875,0.20311269164085388,-0.020005837082862854,0.6171266436576843
1684592015150331600,11.54233154296875,0.22602014243602753,-0.08017606288194656,0.5395467281341553
1684592015167214800,11.55921484375,0.24465152621269226,-0.03222314268350601,0.5013676285743713
1684592015184088600,11.576088623046875,0.17058411240577698,0.11438451707363129,0.5253441333770752
1684592015200961500,11.59296142578125,0.0910189226269722,0.38759398460388184,0.5196936130523682
1684592015217835000,11.6098349609375,0.06291911751031876,0.6275113224983215,0.418748140335083
1684592015234707700,11.626707763671876,0.07223481684923172,0.6627888083457947,0.280539870262146
1684592015251581400,11.64358154296875,0.1319468915462494,0.475253164768219,0.21120665967464447
1684592015268454000,11.660453857421874,0.20906862616539001,0.17837265133857727,0.2562579810619354
1684592015285327600,11.67732763671875,0.2402227520942688,-0.07819075137376785,0.35033121705055237
1684592015302200300,11.694200439453125,0.22296582162380219,-0.1411098688840866,0.43020185828208923
1684592015319074000,11.711073974609375,0.17501288652420044,-0.008399397134780884,0.498924195766449
1684592015335944000,11.72794384765625,0.08704829961061478,0.08674286305904388,0.5919284224510193
1684592015352823300,11.7448232421875,-0.05513058975338936,-0.09056077152490616,0.6420193910598755
1684592015369693200,11.761693115234374,-0.08918632566928864,-0.5238169431686401,0.6427829265594482
1684592015386566700,11.778566650390625,0.09743300825357437,-1.0655016899108887,0.68951416015625
1684592015403439400,11.795439453125,0.3400992155075073,-1.4340062141418457,0.6534730792045593
1684592015420313000,11.81231298828125,0.4784601926803589,-1.561829686164856,0.6195700764656067
1684592015437185800,11.829185791015625,0.5103778839111328,-1.0013608932495117,0.8735373020172119
1684592015454059800,11.846059814453126,0.41920626163482666,1.5262467861175537,0.7678576111793518
1684592015470932200,11.86293212890625,0.2370157092809677,2.2269091606140137,0.36010506749153137
1684592015487805700,11.8798056640625,-0.015118914656341076,0.6663012504577637,-0.12980885803699493
1684592015504678700,11.8966787109375,-0.244804248213768,-1.3176363706588745,-0.6592763066291809
1684592015521552400,11.913552490234375,-0.38637226819992065,-2.2518019676208496,-0.9075930118560791
1684592015538426400,11.93042626953125,-0.3098613917827606,-2.1923954486846924,-0.7502952218055725
1684592015555298800,11.947298828125,-0.04963280260562897,-1.5612188577651978,-0.3903428912162781
1684592015572168700,11.964168701171875,0.18845193088054657,-0.9589056968688965,-0.06963863968849182
1684592015589047600,11.981047607421875,0.2513710558414459,-0.44486260414123535,0.22678372263908386
1684592015605916700,11.997916748046874,0.0907134860754013,-0.1547016203403473,0.6869179606437683
1684592015622792400,12.01479248046875,-0.11789698898792267,0.009010262787342072,0.9411906003952026
1684592015639663900,12.031663818359375,-0.2816088795661926,0.1927279829978943,0.9104946255683899
1684592015656537900,12.048537841796875,-0.37720927596092224,0.26404649019241333,0.8573493957519531
1684592015673410600,12.06541064453125,-0.43737950921058655,0.08292495459318161,0.9398161768913269
1684592015690277600,12.082277587890625,-0.3767511546611786,-0.36010506749153137,1.1133018732070923
1684592015707156700,12.09915673828125,-0.09926560521125793,-0.7476990818977356,1.1174252033233643
1684592015724030500,12.116030517578125,0.15775595605373383,-1.0893254280090332,0.822682797908783
1684592015740903000,12.13290283203125,0.2675589919090271,-1.3950635194778442,0.2970332205295563
1684592015757777000,12.14977685546875,0.32650747895240784,-1.5338826179504395,-0.2165517359972
1684592015774646800,12.166646728515625,0.34147366881370544,-1.5383113622665405,-0.5383250117301941
1684592015791526100,12.183526123046875,0.3234531581401825,-1.487609624862671,-0.6571382880210876
1684592015808395800,12.200395751953126,0.2405281960964203,-1.447597861289978,-0.6394231915473938
1684592015825269500,12.21726953125,0.1316414624452591,-1.3532192707061768,-0.6166684627532959
1684592015842142200,12.23414208984375,0.07559457421302795,-1.1649199724197388,-0.6223189830780029
1684592015859016000,12.251015869140625,0.04886921867728233,-0.9456194043159485,-0.5572618246078491
1684592015875888400,12.267888427734375,-0.0024434609804302454,-0.7932085394859314,-0.3901901841163635
1684592015892762400,12.284762451171876,-0.0731511116027832,-0.736245334148407,-0.21273382008075714
1684592015909634800,12.301634765625,-0.10094548016786575,-0.7197519540786743,-0.14508049190044403
1684592015926508500,12.318508544921874,-0.06383541971445084,-0.7681630253791809,-0.19013181328773499
1684592015943381200,12.33538134765625,0.01970040425658226,-0.9390525817871094,-0.2382374405860901
1684592015960255000,12.3522548828125,0.10247264802455902,-1.1716395616531372,-0.13958270847797394
1684592015977127400,12.36912744140625,0.10903944820165634,-1.4242323637008667,0.10476338863372803
1684592015994001400,12.38600146484375,0.007635815534740686,-1.5025757551193237,0.304210901260376
1684592016010874000,12.4028740234375,-0.02687807008624077,-1.221577763557434,0.3075706362724304
1684592016027747600,12.41974755859375,0.09162978827953339,-0.6721044778823853,-0.04077525436878204
1684592016044620300,12.436620361328124,0.16371189057826996,-0.3582724630832672,-0.4867068827152252
1684592016061494000,12.453493896484375,0.1267545372247696,-0.6501133441925049,-0.5804746747016907
1684592016078366500,12.470366455078125,0.12767083942890167,-0.6481280326843262,-0.3196352422237396
1684592016095240400,12.487240478515625,0.16523905098438263,-0.36392298340797424,-0.1615738570690155
1684592016112113200,12.504113037109375,0.16630806028842926,-0.05054909735918045,-0.05543602257966995
1684592016128984000,12.520984130859375,0.164170041680336,0.14966198801994324,0.08949175477027893
1684592016145859600,12.537859619140624,0.1719585657119751,0.19165897369384766,0.2480112910270691
1684592016162735600,12.554735595703125,0.13729196786880493,0.014202617108821869,0.3842342495918274
1684592016179605800,12.571605712890625,0.05910121276974678,-0.2837468981742859,0.47311514616012573
1684592016196479500,12.5884794921875,-0.0027488935738801956,-0.327271044254303,0.5106833577156067
1684592016213352200,12.605352294921875,-0.09193521738052368,0.029932396486401558,0.45631635189056396
1684592016230222300,12.622222412109375,-0.22739458084106445,0.503047525882721,0.29016098380088806
1684592016247098600,12.6390986328125,-0.3245221674442291,0.6969972252845764,0.13897185027599335
1684592016263972000,12.65597216796875,-0.32100969552993774,0.5181664228439331,0.10980302840471268
1684592016280844800,12.6728447265625,-0.21991148591041565,0.2200642079114914,0.15500704944133759
1684592016297718500,12.689718505859375,-0.11774427443742752,0.01924225501716137,0.13271047174930573
1684592016314591200,12.70659130859375,-0.0354301854968071,-0.005192354787141085,-0.014813481830060482
1684592016331464700,12.723464599609375,0.01572977937757969,0.043218716979026794,-0.20586158335208893
1684592016348337400,12.74033740234375,0.05100724846124649,0.058795779943466187,-0.3084869384765625
1684592016365211100,12.757211181640624,0.07590000331401825,0.01771509274840355,-0.31123584508895874
1684592016382083800,12.774083740234374,0.09743300825357437,-0.006719517521560192,-0.24159720540046692
1684592016398957600,12.79095751953125,0.08857546001672745,0.019089538604021072,-0.14523321390151978
1684592016415830300,12.807830322265625,0.06582073122262955,0.1059851199388504,-0.034666601568460464
1684592016432704300,12.824704345703125,0.01160643994808197,0.2353358417749405,0.09911288321018219
1684592016449576400,12.841576416015625,-0.03695734590291977,0.39324450492858887,0.2678644061088562
1684592016466448100,12.8584482421875,-0.08750644326210022,0.5015203952789307,0.47311514616012573
1684592016483325000,12.875324951171875,-0.1313360333442688,0.5227479338645935,0.7141014933586121
1684592016500196400,12.8921962890625,-0.182648703455925,0.5209153294563293,0.8979719281196594
1684592016517067500,12.909067626953124,-0.24663683772087097,0.6496551632881165,0.902553379535675
1684592016533943000,12.925943115234375,-0.2942843437194824,0.9240863919258118,0.6391177773475647
1684592016550815700,12.942815673828125,-0.2626720666885376,1.0516045093536377,0.26603180170059204
1684592016567689200,12.959689208984376,-0.19043724238872528,0.8141306638717651,0.0074830991216003895
1684592016584562000,12.97656201171875,-0.10751228034496307,0.47678032517433167,-0.09010262042284012
1684592016601435600,12.993435546875,-0.025045474991202354,0.3234531581401825,-0.10797043144702911
1684592016618308400,13.010308349609375,0.01771509274840355,0.3315471112728119,-0.10308351367712021
1684592016635181800,13.027181884765625,0.0012217304902151227,0.4053090810775757,-0.06841690838336945
1684592016652054800,13.0440546875,-0.04459316283464432,0.4977024495601654,-0.0003054326225537807
1684592016668920600,13.060920654296876,-0.11316278576850891,0.5647448897361755,0.06704246252775192
1684592016685801000,13.077801025390626,-0.18570303916931152,0.6013968586921692,0.09834930300712585
1684592016702674700,13.0946748046875,-0.22571471333503723,0.6075055003166199,0.0981965884566307
1684592016719547400,13.11154736328125,-0.251218318939209,0.594524621963501,0.10033461451530457
1684592016736420900,13.1284208984375,-0.2724458873271942,0.584750771522522,0.1215621829032898
1684592016753293800,13.1452939453125,-0.2756529450416565,0.5833762884140015,0.16768251359462738
1684592016770167300,13.162167236328125,-0.2684752643108368,0.598953366279602,0.2422080636024475
1684592016787040000,13.1790400390625,-0.26939156651496887,0.6472117304801941,0.32421672344207764
1684592016803913500,13.19591357421875,-0.2935207486152649,0.7331910133361816,0.40683624148368835
1684592016820785400,13.212785400390626,-0.3533855378627777,0.8051204085350037,0.4966334402561188
1684592016837661200,13.2296611328125,-0.43967026472091675,0.9256135821342468,0.5474879741668701
1684592016854532600,13.24653271484375,-0.5264131426811218,1.1288789510726929,0.4787656366825104
1684592016871406300,13.26340625,-0.5914703011512756,1.2289081811904907,0.30604347586631775
1684592016888279000,13.280279052734375,-0.6247624158859253,1.105513334274292,0.13744467496871948
1684592016905152800,13.29715283203125,-0.5760459303855896,0.8649851679801941,0.025045474991202354
1684592016922015000,13.314014892578125,-0.4280638098716736,0.6933320760726929,-0.044135015457868576
1684592016938899200,13.330899169921874,-0.20799961686134338,0.7194465398788452,-0.11194105446338654
1684592016955771600,13.347771728515625,0.060933809727430344,0.7744244337081909,-0.21700987219810486
1684592016972645600,13.364645751953125,0.39874228835105896,0.7863363027572632,-0.3295617997646332
1684592016989517800,13.381517822265625,0.603687584400177,0.7353290319442749,-0.42531493306159973
1684592017006391800,13.398391845703125,0.5293147563934326,0.7170031070709229,-0.5810855627059937
1684592017023264300,13.41526416015625,0.23228150606155396,0.8663596510887146,-0.82207190990448
1684592017040138000,13.432137939453124,-0.10751228034496307,1.1136072874069214,-0.9683741331100464
1684592017057010700,13.4490107421875,-0.3436116874217987,1.301142930984497,-0.8570439219474792
1684592017073884700,13.465884765625,-0.4688390791416168,1.485166072845459,-0.6304129362106323
1684592017090757000,13.482757080078125,-0.5881105065345764,1.8637498617172241,-0.6154467463493347
1684592017107630600,13.499630615234375,-0.6911939978599548,2.1424572467803955,-0.9752463698387146
1684592017124503300,13.51650341796875,-0.6893614530563354,2.0497584342956543,-1.4578299522399902
1684592017141377000,13.533376953125,-0.4092797040939331,1.8781051635742188,-1.6702582836151123
1684592017158245400,13.550245361328125,-0.10064005106687546,1.6389514207839966,-1.624901533126831
1684592017175127600,13.56712744140625,0.02428189292550087,1.169501543045044,-1.446223497390747
1684592017191996200,13.58399609375,0.126143679022789,0.5734497308731079,-1.1943942308425903
1684592017208869600,13.60086962890625,0.3597996234893799,0.36713001132011414,-0.9277516007423401
1684592017225742600,13.61774267578125,0.5697845816612244,0.5290092825889587,-0.6855435371398926
1684592017242616000,13.634615966796876,0.6611089110374451,0.8822421431541443,-0.6133087277412415
1684592017259488800,13.65148876953125,0.7289149761199951,1.1337659358978271,-0.6614143252372742
1684592017276362500,13.668362548828124,0.8278751373291016,1.1476631164550781,-0.5740606188774109
1684592017293235200,13.685235107421875,0.9408851861953735,1.0719157457351685,-0.33536502718925476
1684592017310098700,13.7020986328125,1.0096075534820557,1.1061242818832397,-0.052839845418930054
1684592017326981400,13.7189814453125,1.0093021392822266,1.3180944919586182,0.2154827117919922
1684592017343855000,13.735855224609375,0.954018771648407,1.6223053932189941,0.43646320700645447
1684592017360724200,13.75272412109375,0.884227454662323,1.9927951097488403,0.5534439086914062
1684592017377601500,13.7696015625,0.8188648819923401,2.3020455837249756,0.5609270334243774
1684592017394474000,13.786473876953124,0.7683157324790955,2.3687827587127686,0.47342056035995483
1684592017411348000,13.803347900390625,0.741895854473114,2.2229385375976562,0.3433062732219696
1684592017428220400,13.820220458984375,0.7189884185791016,1.9958494901657104,0.27351492643356323
1684592017445094100,13.83709423828125,0.7046330571174622,1.7551685571670532,0.2929098904132843
1684592017461966600,13.853966552734375,0.7162395119667053,1.6125315427780151,0.37659841775894165
1684592017478840300,13.87084033203125,0.6792821288108826,1.560302495956421,0.49693888425827026
1684592017495713000,13.887713134765624,0.585667073726654,1.500590443611145,0.6064364910125732
1684592017512586200,13.904586181640624,0.41752639412879944,1.324508547782898,0.6340781450271606
1684592017529460200,13.921460205078125,0.30604347586631775,1.1869112253189087,0.6484334468841553
1684592017546333000,13.9383330078125,0.3000875413417816,1.1226176023483276,0.6934847831726074
1684592017563206000,13.955205810546875,0.31841349601745605,1.0598511695861816,0.6879869699478149
1684592017580079400,13.972079345703126,0.34574973583221436,0.9781479835510254,0.6033821702003479
1684592017596952000,13.9889521484375,0.4066835343837738,0.8788823485374451,0.4943426847457886
1684592017613825800,14.00582568359375,0.385303258895874,0.7287622094154358,0.3631593883037567
1684592017630698800,14.02269873046875,0.32589662075042725,0.8216137290000916,0.30711251497268677
1684592017647572000,14.039572021484375,0.3068070709705353,1.0334312915802002,0.3376557528972626
1684592017664444700,14.056444580078125,0.31031954288482666,1.0554224252700806,0.44577890634536743
1684592017681318400,14.073318359375,0.1927279829978943,0.7287622094154358,0.5765040516853333
1684592017698191000,14.090191162109376,-0.18784105777740479,-0.07971791177988052,0.6621779203414917
1684592017715054300,14.107054443359376,-0.50335294008255,-0.6754642724990845,0.7771732807159424
1684592017731937500,14.1239375,-0.24572055041790009,-0.5703954100608826,0.9199630618095398
1684592017748811000,14.14081103515625,0.13836097717285156,0.052381694316864014,0.9804387092590332
1684592017765683700,14.15768359375,0.24419337511062622,1.0983357429504395,0.8139779567718506
1684592017782557400,14.174557373046875,0.15561792254447937,1.643227458000183,0.6015495657920837
1684592017799430100,14.19143017578125,0.0065668015740811825,1.1407908201217651,0.6360634565353394
1684592017816303600,14.2083037109375,-0.0731511116027832,0.20723603665828705,0.7637342810630798
1684592017833176600,14.225176513671874,-0.10919216275215149,-0.30970868468284607,0.6484334468841553
1684592017850034000,14.242033935546875,-0.18157969415187836,-0.1241583600640297,0.32971450686454773
1684592017866922800,14.2589228515625,-0.3309362530708313,0.37308594584465027,0.03588833287358284
1684592017883796500,14.27579638671875,-0.3292563557624817,0.8078693151473999,-0.016951510682702065
1684592017900669000,14.2926689453125,0.02779436856508255,0.9705121517181396,0.2871066629886627
1684592017917542700,14.309542724609376,0.30253100395202637,0.2744311988353729,1.1439979076385498
1684592017934415400,14.326415283203126,0.4447098970413208,-0.15027284622192383,1.5456417798995972
1684592017951289000,14.3432890625,0.4537201523780823,-0.11927144229412079,1.4469870328903198
1684592017968161800,14.360161865234375,0.35124751925468445,-0.11270463466644287,1.2625057697296143
1684592017985035300,14.37703515625,0.2919935882091522,-0.4834998548030853,1.3110694885253906
1684592018001908000,14.393907958984375,0.3094032406806946,-1.1259773969650269,1.488220453262329
1684592018018781400,14.410781494140625,0.2929098904132843,-1.6090190410614014,1.4761558771133423
1684592018035654400,14.427654296875,0.2226603776216507,-1.6551393270492554,1.1346821784973145
1684592018052527900,14.44452783203125,0.10644327104091644,-1.1530081033706665,0.3179553747177124
1684592018069400600,14.461400634765624,0.050854530185461044,-0.617584764957428,-0.35750889778137207
1684592018086272000,14.47827197265625,0.078343465924263,-0.48548516631126404,-0.5036584138870239
1684592018103149600,14.495149658203125,0.16019940376281738,-0.5885686874389648,-0.3776674270629883
1684592018120020500,14.5120205078125,0.2102903574705124,-0.7295258045196533,-0.18997909128665924
1684592018136893200,14.52889306640625,0.1514945775270462,-0.8633053302764893,0.0029016099870204926
1684592018153767000,14.545766845703126,0.004123340360820293,-0.9996809959411621,0.19425514340400696
1684592018170639600,14.5626396484375,-0.11163562536239624,-1.0809260606765747,0.3556762933731079
1684592018187513000,14.57951318359375,-0.1797471046447754,-1.0563386678695679,0.4554000496864319
1684592018204383200,14.59638330078125,-0.2356412708759308,-0.9584475755691528,0.4841107130050659
1684592018221262000,14.613261962890626,-0.2779437005519867,-0.8381071090698242,0.47998735308647156
1684592018238132200,14.63013232421875,-0.32498031854629517,-0.7286095023155212,0.44455718994140625
1684592018255006000,14.647005859375,-0.3214678466320038,-0.5673410892486572,0.3303253948688507
1684592018271878700,14.663878662109376,-0.15806138515472412,-0.3039054572582245,0.17592918872833252
1684592018288752000,14.680752197265624,0.1085812970995903,-0.12171489745378494,0.0959058403968811
1684592018305624800,14.697624755859374,0.33292156457901,-0.289244681596756,0.1635591685771942
1684592018322498600,14.71449853515625,0.4075998365879059,-0.6146831512451172,0.23426681756973267
1684592018339371000,14.73137109375,0.38209620118141174,-0.6656904220581055,0.09896016865968704
1684592018356244700,14.74824462890625,0.36529740691185,-0.5529857873916626,-0.12232576310634613
1684592018373117400,14.765117431640626,0.33047810196876526,-0.8796459436416626,-0.1290452778339386
1684592018389991000,14.781990966796876,0.20311269164085388,-1.160033106803894,-0.13484850525856018
1684592018406853000,14.79885302734375,0.0754418596625328,-0.44257187843322754,-0.6707300543785095
1684592018423737600,14.815737548828125,0.08521570265293121,1.3335188627243042,-1.7253888845443726
1684592018440610000,14.832610107421875,0.156686931848526,2.836705446243286,-2.517681121826172
1684592018457483800,14.84948388671875,0.34574973583221436,3.4350481033325195,-2.705216646194458
1684592018474356500,14.8663564453125,0.5115996599197388,3.1345021724700928,-2.545475482940674
1684592018491230200,14.883230224609376,0.5242751240730286,2.406198263168335,-2.337170362472534
1684592018508102700,14.9001025390625,0.4363104999065399,1.749212622642517,-2.236530303955078
1684592018524976400,14.916976318359374,0.3323107063770294,1.2536481618881226,-2.2569942474365234
1684592018541849000,14.93384912109375,0.24526239931583405,0.7535023093223572,-2.2211060523986816
1684592018558722800,14.950722900390625,0.21349740028381348,0.41981714963912964,-2.037999153137207
1684592018575595300,14.96759521484375,0.26251932978630066,0.375529408454895,-1.6496416330337524
1684592018592469000,14.984468994140625,0.3162754774093628,0.2788599729537964,-0.9724974632263184
1684592018609341400,15.001341552734376,0.408974289894104,0.8242099285125732,-0.5280929803848267
1684592018626212600,15.018212646484375,0.5207626223564148,1.8041905164718628,-0.5751296281814575
1684592018643088000,15.035087890625,0.5010622143745422,2.3215932846069336,-0.6490443348884583
1684592018659964200,15.051964111328125,0.35262197256088257,2.3495404720306396,-0.48426342010498047
1684592018676834300,15.068834228515625,0.22403483092784882,2.185981273651123,-0.10735956579446793
1684592018693708000,15.0857080078125,0.15790866315364838,1.9349156618118286,0.34116822481155396
1684592018710580500,15.10258056640625,0.11438451707363129,1.5693128108978271,0.722959041595459
1684592018727454200,15.1194541015625,0.11239920556545258,1.1293370723724365,0.9671524167060852
1684592018744326700,15.13632666015625,0.11194105446338654,0.5300782918930054,0.9905179738998413
1684592018761198300,15.1531982421875,0.018325956538319588,-0.055741455405950546,0.8891143798828125
1684592018778075600,15.17007568359375,-0.1408044397830963,-0.3488040566444397,0.8460483551025391
1684592018794947000,15.186947021484375,-0.24236078560352325,-0.15012013912200928,0.8707883954048157
1684592018811819800,15.20381982421875,-0.13637566566467285,0.5123631954193115,1.0900890827178955
1684592018828693000,15.22069287109375,0.01863138936460018,1.1117748022079468,1.4306464195251465
1684592018845565700,15.237565673828126,0.15836681425571442,1.4760031700134277,1.309084177017212
1684592018862439400,15.254439453125,0.45875978469848633,1.4995214939117432,0.2525927722454071
1684592018879312100,15.27131201171875,0.470671683549881,1.3532192707061768,-0.46410486102104187
1684592018896185600,15.288185546875,0.3891211748123169,1.6687310934066772,-0.43249258399009705
1684592018913058300,15.305058349609375,0.265573650598526,1.8139643669128418,-0.05345070734620094
1684592018929931800,15.321931884765625,-0.08399397134780884,0.7110471725463867,0.3225368559360504
1684592018946804500,15.338804443359376,-0.5671883821487427,-0.5361869931221008,0.5109887719154358
1684592018963678200,15.35567822265625,-0.9311113357543945,-0.4893030524253845,0.45662176609039307
1684592018980551000,15.372551025390624,-0.8118399381637573,1.871996521949768,0.09468411654233932
1684592018997424400,15.38942431640625,-0.3474296033382416,2.758362054824829,-0.499382346868515
1684592019014297300,15.40629736328125,-0.17928895354270935,0.9108000993728638,-0.2790127098560333
1684592019031171000,15.423171142578125,0.04657847434282303,0.055894169956445694,0.1586722433567047
1684592019048043500,15.44004345703125,0.26832255721092224,-0.1313360333442688,0.40286561846733093
1684592019064917200,15.456917236328126,0.38637226819992065,-0.13576480746269226,0.48090365529060364
1684592019081789700,15.473789794921874,0.40424007177352905,-0.0682641938328743,0.4288274049758911
1684592019098647600,15.4906474609375,0.4323398768901825,-0.040622539818286896,0.3321579694747925
1684592019115536400,15.507536376953125,0.5126686692237854,-0.4069889783859253,0.4210388660430908
1684592019132409900,15.524409912109375,0.4456261992454529,-2.381152629852295,1.2469286918640137
1684592019149282300,15.5412822265625,0.48685958981513977,-3.8169915676116943,1.937359094619751
1684592019166153500,15.558153564453125,0.644768238067627,-3.871511220932007,2.126727342605591
1684592019183031300,15.57503125,0.613461434841156,-3.447265386581421,1.9712620973587036
1684592019199902200,15.591902099609374,0.33475416898727417,-1.0387763977050781,0.894001305103302
1684592019216775000,15.60877490234375,0.09911288321018219,1.1400272846221924,0.20265454053878784
1684592019233649000,15.62564892578125,0.03497203439474106,2.037540912628174,0.26893341541290283
1684592019250521300,15.642521240234375,0.01878410577774048,1.8970420360565186,0.7351763248443604
1684592019267395000,15.65939501953125,-0.009468411095440388,1.3261884450912476,1.1217013597488403
1684592019284267500,15.676267578125,-0.05513058975338936,0.8454375267028809,1.2258538007736206
1684592019301141000,15.69314111328125,-0.05604688450694084,0.46899178624153137,1.1968377828598022
1684592019318014000,15.710013916015624,-0.05314527451992035,0.0858265683054924,1.1759155988693237
1684592019334887400,15.726887451171875,-0.08811730891466141,-0.32268956303596497,1.1982121467590332
1684592019351760400,15.743760498046875,-0.14844025671482086,-0.6520986557006836,1.2428053617477417
1684592019368633600,15.760633544921875,-0.204487144947052,-0.8596401214599609,1.294118046760559
1684592019385506600,15.777506591796875,-0.24465152621269226,-0.9451612234115601,1.3154983520507812
1684592019402380300,15.79438037109375,-0.308792382478714,-0.6569855809211731,1.0809260606765747
1684592019419252700,15.811252685546876,-0.42638394236564636,0.09453139454126358,0.38408151268959045
1684592019436126200,15.828126220703124,-0.5067127346992493,0.7102835774421692,-0.3787364661693573
1684592019452999200,15.844999267578125,-0.5111414790153503,0.8119926452636719,-0.7528914213180542
1684592019469872600,15.86187255859375,-0.33689218759536743,0.6821837425231934,-0.8132143616676331
1684592019486745300,15.878745361328125,-0.08903361111879349,0.3741549551486969,-0.6514877676963806
1684592019503618800,15.895618896484375,0.11362093687057495,-0.13805554807186127,-0.3338378667831421
1684592019520491500,15.912491455078126,0.20983220636844635,-0.4789183437824249,-0.06185010448098183
1684592019537365200,15.929365234375,0.247094988822937,-0.41813725233078003,0.06750060617923737
1684592019554238000,15.946238037109374,0.2580905556678772,-0.3651446998119354,0.2292271852493286
1684592019571111700,15.963111572265625,0.15821409225463867,-0.6779077053070068,0.5203045010566711
1684592019587984100,15.979984130859375,-0.0429132841527462,-0.6065891981124878,0.24342979490756989
1684592019604857900,15.99685791015625,-0.1108720451593399,1.7385225296020508,-1.6128369569778442
1684592019621730300,16.013730224609375,0.12324206531047821,4.1160101890563965,-2.871983051300049
1684592019638604000,16.03060400390625,0.41661009192466736,4.286899566650391,-2.811660051345825
1684592019655476700,16.047476806640624,0.7309002876281738,3.264005661010742,-2.3047945499420166
1684592019672350500,16.0643505859375,0.8303185701370239,2.3657283782958984,-2.032501459121704
1684592019689215000,16.081215087890627,0.7046330571174622,1.9252945184707642,-2.048689365386963
1684592019706095400,16.098095458984375,0.5775730609893799,1.5334244966506958,-2.1012237071990967
1684592019722971600,16.1149716796875,0.5673410892486572,1.1035280227661133,-2.028988838195801
1684592019739843000,16.131843017578124,0.6565274000167847,0.8397870063781738,-1.7402023077011108
1684592019756715500,16.148715576171874,0.720820963382721,0.9135489463806152,-1.291369080543518
1684592019773589500,16.165589599609376,0.7238753437995911,1.2053898572921753,-0.8000807762145996
1684592019790451700,16.18245166015625,0.7153232097625732,1.381624460220337,-0.33017265796661377
1684592019807335700,16.199335693359377,0.7124215960502625,0.34162637591362,0.2422080636024475
1684592019824208100,16.2162080078125,0.9750936627388,-0.3072652220726013,0.3205515444278717
1684592019841081900,16.233081787109374,1.2841914892196655,0.29626965522766113,0.041233405470848083
1684592019857954600,16.24995458984375,1.3280210494995117,1.446223497390747,0.00733038317412138
1684592019874828000,16.266828125,1.1620184183120728,2.609769105911255,0.4447098970413208
1684592019891700500,16.283700439453124,0.8859072923660278,3.358078956604004,1.0670288801193237
1684592019908574200,16.30057421875,0.5560401082038879,3.3298263549804688,1.4892895221710205
1684592019925447000,16.317447021484377,0.26145032048225403,2.62717866897583,1.5771013498306274
1684592019942320600,16.334320556640623,0.022907447069883347,1.5951218605041504,1.448819637298584
1684592019959193000,16.351193115234373,-0.21991148591041565,0.5077817440032959,1.294118046760559
1684592019976067000,16.368067138671876,-0.45005497336387634,-0.2968805134296417,1.203251838684082
1684592019992939300,16.384939208984374,-0.5287038683891296,-0.5018258094787598,1.2185235023498535
1684592020009813000,16.40181298828125,-0.375529408454895,0.41630467772483826,1.3226759433746338
1684592020026685700,16.418685791015626,-0.1592831164598465,2.1615467071533203,1.3341296911239624
1684592020043559400,16.435559326171877,-0.044135015457868576,3.2795827388763428,0.8736900091171265
1684592020060432400,16.452432373046875,0.28756481409072876,2.8099801540374756,0.2116648107767105
1684592020077305900,16.469305908203125,0.6539312601089478,1.9029979705810547,-0.3130684494972229
1684592020094178600,16.486178466796876,0.7907650470733643,1.474017858505249,-0.4095851480960846
1684592020111052300,16.50305224609375,0.7250970602035522,1.6001615524291992,-0.08536841720342636
1684592020127924500,16.519924560546876,0.6275113224983215,1.6548339128494263,0.40943244099617004
1684592020144798200,16.536798095703126,0.4960225820541382,1.3298536539077759,0.6707300543785095
1684592020161671000,16.5536708984375,0.23090706765651703,0.8616254329681396,0.623235285282135
1684592020178544600,16.570544677734375,-0.10048733651638031,0.1391245573759079,0.38011088967323303
1684592020195417000,16.5874169921875,0.07192938029766083,-0.8284859657287598,-0.09728029370307922
1684592020212290800,16.604290771484376,0.3407101035118103,-0.2744311988353729,-0.9940304756164551
1684592020229163300,16.621163330078126,0.3778201639652252,1.2234103679656982,-0.6580545902252197
1684592020246038800,16.638038818359377,0.17791450023651123,1.3771957159042358,0.49128836393356323
1684592020262908200,16.654908203125,0.098502017557621,1.0951286554336548,1.3461942672729492
1684592020279783400,16.671783447265625,0.1713477075099945,1.1481212377548218,1.6015359163284302
1684592020296656000,16.68865576171875,0.15042556822299957,1.6082555055618286,1.4382822513580322
1684592020313529600,16.705529541015625,0.026572637259960175,2.203085422515869,1.1186469793319702
1684592020330391800,16.722391845703125,-0.001679879380390048,2.50103497505188,0.9344711303710938
1684592020347275800,16.73927587890625,0.05375614017248154,0.8680394887924194,1.7328720092773438
1684592020364148500,16.7561484375,0.3049744665622711,-0.9201157689094543,2.3805418014526367
1684592020381022000,16.77302197265625,0.7870998978614807,-0.22892175614833832,1.507157325744629
1684592020397895000,16.78989501953125,0.9201157689094543,0.4389066696166992,0.4726569950580597
1684592020414768400,16.806768310546875,0.7345654368400574,0.24190263450145721,0.21074850857257843
1684592020431641000,16.82364111328125,0.5395467281341553,-0.020311269909143448,0.4547891616821289
1684592020448514600,16.8405146484375,0.4628831446170807,0.0959058403968811,0.7715228199958801
1684592020465387300,16.85738720703125,0.4665483236312866,0.3501785099506378,1.063821792602539
1684592020482254600,16.874254638671875,0.437226802110672,0.47280970215797424,1.3600914478302002
1684592020499133700,16.8911337890625,0.29367345571517944,0.4576907753944397,1.5427402257919312
1684592020516007200,16.908007080078125,0.059406645596027374,0.5230533480644226,1.4715744256973267
1684592020532880000,16.9248798828125,-0.14309518039226532,0.7145596146583557,1.2110403776168823
1684592020549753300,16.94175341796875,-0.20051652193069458,0.7577783465385437,0.95462965965271
1684592020566626000,16.9586259765625,-0.17547103762626648,0.44058656692504883,0.8045095205307007
1684592020583499500,16.97549951171875,-0.08659014850854874,0.009621127508580685,0.6734789609909058
1684592020600372200,16.992372314453124,0.07666359096765518,-0.39645153284072876,0.5482515692710876
1684592020617246000,17.009245849609375,0.18127426505088806,-0.7286095023155212,0.42791110277175903
1684592020634118700,17.02611865234375,0.16172657907009125,-0.9185886383056641,0.31871894001960754
1684592020650992400,17.042992431640624,0.06062837690114975,-0.9472993016242981,0.25992316007614136
1684592020667864800,17.05986474609375,-0.07131851464509964,-0.8266534209251404,0.24908030033111572
1684592020684738800,17.07673876953125,-0.2064724564552307,-0.6511823534965515,0.2915354371070862
1684592020701611300,17.093611328125,-0.36682456731796265,-0.49525898694992065,0.3219259977340698
1684592020718483000,17.11048291015625,-0.5917757153511047,-0.42531493306159973,0.24129177629947662
1684592020735359000,17.12735888671875,-0.6418666839599609,-0.39553526043891907,0.06215553730726242
1684592020752231200,17.144231201171873,-0.4625777006149292,-0.3078760802745819,-0.1540907621383667
1684592020769103600,17.161103515625,-0.156686931848526,-0.30512720346450806,-0.29245173931121826
1684592020785977000,17.17797705078125,0.10934487730264664,-0.5419901609420776,-0.30711251497268677
1684592020802849800,17.194849853515624,0.22632557153701782,-0.7974845767021179,-0.3404046595096588
1684592020819723500,17.2117236328125,0.20616702735424042,-0.7954992651939392,-0.4528038501739502
1684592020836596200,17.22859619140625,0.09896016865968704,-0.5662720799446106,-0.4662429094314575
1684592020853469700,17.2454697265625,-0.10751228034496307,-0.3520110845565796,-0.06276640295982361
1684592020870331600,17.26233154296875,-0.06704246252775192,0.3303253948688507,0.42760565876960754
1684592020887215900,17.2792158203125,0.052228979766368866,1.7345519065856934,0.3660610020160675
1684592020904088600,17.296088623046874,0.07635815441608429,3.1062498092651367,-0.13805554807186127
1684592020920970500,17.312970458984374,0.020922135561704636,3.79652738571167,-0.7742717266082764
1684592020937834800,17.329834716796874,-0.126143679022789,3.7707183361053467,-1.4811954498291016
1684592020954708500,17.34670849609375,-0.18829920887947083,3.265532970428467,-2.140929937362671
1684592020971581200,17.363581298828127,-0.13408492505550385,2.4529294967651367,-2.5776987075805664
1684592020988454700,17.38045458984375,-0.10002918541431427,1.4492777585983276,-2.7285823822021484
1684592021005327400,17.397327392578124,-0.1547016203403473,0.3321579694747925,-2.6925413608551025
1684592021022200800,17.414200927734374,-0.22082778811454773,-0.5925393104553223,-2.567772150039673
1684592021039073500,17.431073486328124,-0.10567969083786011,-1.0968085527420044,-2.386650562286377
1684592021055947300,17.447947265625,0.15577064454555511,-1.135140299797058,-2.0112738609313965
1684592021072822500,17.464822509765625,0.4732678532600403,-0.7944302558898926,-1.5480852127075195
1684592021089691000,17.48169091796875,0.6163630485534668,0.27809640765190125,-1.0485502481460571
1684592021106566100,17.498566162109373,0.49144110083580017,1.969735026359558,-0.6491970419883728
1684592021123439600,17.515439697265624,0.2272418737411499,2.919935941696167,-0.4369213581085205
1684592021140312300,17.532312255859374,-0.05650503560900688,2.7200303077697754,-0.25992316007614136
1684592021157185800,17.549185791015624,-0.25335636734962463,1.9541579484939575,-0.10506882518529892
1684592021174058800,17.566058837890626,-0.30695977807044983,1.1869112253189087,-0.017562376335263252
1684592021190932500,17.582932373046877,-0.22540926933288574,0.6603453159332275,0.044135015457868576
1684592021207804700,17.5998046875,-0.1313360333442688,0.34208452701568604,0.12629638612270355
1684592021224678400,17.616678466796873,-0.12232576310634613,0.027488935738801956,0.29245173931121826
1684592021241551000,17.633551025390624,-0.1644754707813263,-0.28985556960105896,0.49327367544174194
1684592021258424600,17.650424560546874,-0.20861047506332397,-0.42180246114730835,0.6444628238677979
1684592021275297300,17.66729736328125,-0.1973094791173935,-0.41523563861846924,0.7687739133834839
1684592021292171000,17.6841708984375,-0.15073099732398987,-0.5487096905708313,0.8930850028991699
1684592021309043500,17.70104345703125,-0.10033461451530457,-0.7689266204833984,0.9983065128326416
1684592021325916200,17.717916259765627,-0.036041051149368286,-0.9100365042686462,1.072221279144287
1684592021342791000,17.734791015625,0.06536258012056351,-0.9598219990730286,1.1110111474990845
1684592021359663400,17.751663330078124,0.16982053220272064,-0.9726501703262329,1.1789699792861938
1684592021376536000,17.7685361328125,0.22067506611347198,-0.9911288619041443,1.3419182300567627
1684592021393409800,17.785409912109376,0.22678372263908386,-0.8732318878173828,1.445918083190918
1684592021410277000,17.802277099609373,0.26404649019241333,-0.5598580241203308,1.2487612962722778
1684592021427155700,17.81915576171875,0.35750889778137207,-0.12278391420841217,0.737772524356842
1684592021444028400,17.8360283203125,0.3419318199157715,0.21212296187877655,0.17760907113552094
1684592021460902100,17.852902099609373,0.21578814089298248,0.3572034537792206,-0.036651913076639175
1684592021477779500,17.869779541015625,0.10476338863372803,0.4479169547557831,0.054825156927108765
1684592021494648300,17.8866484375,0.027641652151942253,0.40164390206336975,0.23487769067287445
1684592021511521000,17.90352099609375,0.031612277030944824,0.24327708780765533,0.4199698567390442
1684592021528394800,17.920394775390626,0.02535090781748295,-0.039706241339445114,0.5007568001747131
1684592021545264600,17.9372646484375,0.013286318629980087,-0.2893974184989929,0.45784351229667664
1684592021562143200,17.954143310546876,0.06475171446800232,-0.44486260414123535,0.45753806829452515
1684592021579013400,17.971013427734373,0.204487144947052,-0.5105306506156921,0.7761042714118958
1684592021595887000,17.98788720703125,0.26740625500679016,-0.3888157308101654,1.4660766124725342
1684592021612759800,18.004759765625,0.09056077152490616,0.1137736514210701,1.8738291263580322
1684592021629633300,18.02163330078125,-0.17531833052635193,1.0270172357559204,1.540907621383667
1684592021646505700,18.038505615234374,-0.3805690407752991,1.6630805730819702,0.7730499505996704
1684592021663379500,18.05537939453125,-0.35613444447517395,1.311833143234253,0.28008171916007996
1684592021680252200,18.072252197265627,-0.055741455405950546,0.15515977144241333,0.1537853181362152
1684592021697125600,18.089125732421873,0.3349068760871887,-0.9796751141548157,0.01725694350898266
1684592021713998300,18.105998291015624,0.5050328373908997,-1.5331190824508667,-0.18387043476104736
1684592021730859000,18.12285888671875,0.4639521539211273,-1.5974125862121582,-0.31841349601745605
1684592021747744500,18.13974462890625,0.3805690407752991,-1.3895657062530518,-0.30711251497268677
1684592021764618200,18.1566181640625,0.31230485439300537,-1.0505355596542358,-0.16340644657611847
1684592021781491000,18.173490966796876,0.2252565622329712,-0.669355571269989,0.021991148591041565
1684592021798370600,18.19037060546875,0.08246681094169617,-0.28359419107437134,0.1437060534954071
1684592021815241000,18.207240966796874,-0.05268712714314461,0.04917465150356293,0.16233743727207184
1684592021832110800,18.22411083984375,-0.08292495459318161,0.2926044464111328,0.1443169116973877
1684592021848983000,18.240983154296874,-0.0507018156349659,0.3822489380836487,0.14233160018920898
1684592021865854700,18.257854736328124,-0.005039638374000788,0.29184088110923767,0.17379115521907806
1684592021882731500,18.2747314453125,0.03344487398862839,0.059406645596027374,0.23426681756973267
1684592021899603000,18.29160302734375,0.041233405470848083,-0.2996293902397156,0.29657506942749023
1684592021916475600,18.3084755859375,0.07192938029766083,-0.7195992469787598,0.34987306594848633
1684592021933349600,18.325349609375,0.1618792861700058,-1.0705413818359375,0.39217549562454224
1684592021950214400,18.34221435546875,0.21151208877563477,-1.3222178220748901,0.41233405470848083
1684592021967098000,18.35909814453125,0.15745051205158234,-1.425454020500183,0.3880521357059479
1684592021983968300,18.37596826171875,0.0731511116027832,-1.2489140033721924,0.22968533635139465
1684592022000841700,18.392841796875,0.06688974797725677,-0.7904596328735352,-0.12034045159816742
1684592022017714200,18.409714111328125,0.10461067408323288,-0.39996400475502014,-0.4534147381782532
1684592022034588400,18.42658837890625,0.12996158003807068,-0.30482175946235657,-0.5757405161857605
1684592022051460600,18.443460693359373,0.1540907621383667,-0.36010506749153137,-0.5761986374855042
1684592022068334300,18.460334228515624,0.1927279829978943,-0.44944411516189575,-0.5555819272994995
1684592022085206800,18.477206787109374,0.2539672255516052,-0.5484042763710022,-0.5180137157440186
1684592022102080500,18.49408056640625,0.2811507284641266,-0.6290385127067566,-0.4619668424129486
1684592022118953000,18.510952880859374,0.27611109614372253,-0.6974554061889648,-0.40362921357154846
1684592022135826700,18.52782666015625,0.2539672255516052,-0.7148650288581848,-0.3568980097770691
1684592022152699400,18.544699462890627,0.22647829353809357,-0.6768386960029602,-0.3312416672706604
1684592022169572600,18.561572509765625,0.20616702735424042,-0.6029239892959595,-0.29993483424186707
1684592022186445300,18.5784453125,0.18310685455799103,-0.535881519317627,-0.2344195395708084
1684592022203319000,18.595319091796874,0.1589776873588562,-0.4812090992927551,-0.16004669666290283
1684592022220191700,18.612191650390624,0.15195272862911224,-0.4199698567390442,-0.09147707372903824
1684592022237065500,18.6290654296875,0.14767667651176453,-0.38728857040405273,-0.019089538604021072
1684592022253938000,18.64593798828125,0.1186605766415596,-0.3651446998119354,0.04642575979232788
1684592022270811400,18.662811279296875,0.04993823543190956,-0.33796119689941406,0.10308351367712021
1684592022287683800,18.679683837890625,-0.007788531947880983,-0.27488934993743896,0.16111570596694946
1684592022304557600,18.6965576171875,-0.00809396430850029,-0.18646661937236786,0.20861047506332397
1684592022321430300,18.71343017578125,-0.02779436856508255,-0.09682214260101318,0.21303924918174744
1684592022338301200,18.73030126953125,-0.01970040425658226,-0.07559457421302795,0.21288654208183289
1684592022355179300,18.74717919921875,-0.003359758760780096,-0.11270463466644287,0.19914206862449646
1684592022372050400,18.764050537109377,0.02275473065674305,-0.12965615093708038,0.1547016203403473
1684592022388922600,18.780922607421875,0.033597588539123535,-0.10033461451530457,0.08628471940755844
1684592022405796400,18.79779638671875,0.01237002108246088,-0.07116580009460449,0.03878994286060333
1684592022422668800,18.814668701171875,-0.022449297830462456,-0.02932153269648552,0.021838432177901268
1684592022439542500,18.83154248046875,-0.04505131021142006,0.006108652334660292,0.01817324012517929
1684592022456415200,18.848415283203124,-0.061391957104206085,0.01618792861700058,0.016340645030140877
1684592022473289000,18.8652890625,-0.08139779418706894,0.0003054326225537807,0.009926560334861279
1684592022490161400,18.882161376953125,-0.08659014850854874,-0.033139441162347794,0.02168571576476097
1684592022507035000,18.899034912109375,-0.059406645596027374,-0.06780604273080826,0.047800205647945404
1684592022523893800,18.915893798828126,-0.017867809161543846,-0.11713340878486633,0.0633772686123848
1684592022540781000,18.932781005859376,0.01466076634824276,-0.1638645976781845,0.05146539583802223
1684592022557653800,18.94965380859375,0.014813481830060482,-0.19104810059070587,0.01817324012517929
1684592022574527500,18.966527587890624,-0.025961773470044136,-0.20922134816646576,-0.010231993161141872
1684592022591397400,18.9833974609375,-0.02825251780450344,-0.1794416606426239,-0.022449297830462456
1684592022608276200,19.000276123046874,-0.024129176512360573,-0.12751811742782593,-0.03298672288656235
1684592022625146000,19.01714599609375,-0.038637228310108185,-0.11530081182718277,-0.03451388701796532
1684592022642019800,19.034019775390625,-0.02825251780450344,-0.13148874044418335,-0.027030786499381065
1684592022658892300,19.050892333984375,-0.0019853119738399982,-0.15561792254447937,-0.025503624230623245
1684592022675766300,19.067766357421874,0.02168571576476097,-0.19165897369384766,-0.02687807008624077
1684592022692638700,19.084638671875,0.03848451003432274,-0.22143864631652832,-0.02428189292550087
1684592022709512200,19.10151220703125,0.05268712714314461,-0.20861047506332397,-0.027030786499381065
1684592022726385000,19.118385009765625,0.05406157299876213,-0.16325373947620392,-0.03741549700498581
1684592022743258400,19.13525830078125,0.04795292019844055,-0.11942415684461594,-0.03527746722102165
1684592022760131000,19.152131103515625,0.04749477282166481,-0.09422596544027328,-0.01664607785642147
1684592022777004500,19.169004638671876,0.048716504126787186,-0.08689557760953903,0.002138028386980295
1684592022793877200,19.185877197265626,0.04596760869026184,-0.07819075137376785,0.0022907445672899485
1684592022810740200,19.202740234375,0.036193765699863434,-0.07681630551815033,-0.0019853119738399982
1684592022827623400,19.21962353515625,0.01970040425658226,-0.07941248267889023,0.006108652334660292
1684592022844497200,19.2364970703125,0.009926560334861279,-0.07254024595022202,0.03237585723400116
1684592022861369600,19.25336962890625,0.007635815534740686,-0.035582900047302246,0.05849034711718559
1684592022878237200,19.2702373046875,0.021532999351620674,0.020922135561704636,0.06612616032361984
1684592022895112000,19.28711181640625,0.033139441162347794,0.046273041516542435,0.05742133408784866
1684592022911989500,19.303989501953126,0.0328340083360672,0.05421429127454758,0.024892758578062057
1684592022928862000,19.320862060546876,0.030237829312682152,0.07070764899253845,-0.011759156361222267
1684592022945735700,19.337735595703126,0.02076941914856434,0.09804387390613556,-0.020922135561704636
1684592022962608400,19.3546083984375,0.01038470957428217,0.13454307615756989,-0.0029016099870204926
1684592022979481900,19.37148193359375,0.005650503560900688,0.19547687470912933,0.021991148591041565
1684592022996354600,19.3883544921875,0.005039638374000788,0.26862800121307373,0.045204028487205505
1684592023013228300,19.405228271484376,0.020463986322283745,0.31413745880126953,0.07070764899253845
1684592023030090000,19.422090087890624,0.04993823543190956,0.28267788887023926,0.11071932315826416
1684592023046974200,19.43897412109375,0.07849618047475815,0.1999056488275528,0.13225232064723969
1684592023063847000,19.455846923828126,0.09834930300712585,0.11789698898792267,0.11850785464048386
1684592023080720400,19.472720458984377,0.09208793938159943,0.04917465150356293,0.0910189226269722
1684592023097592800,19.4895927734375,0.07131851464509964,0.01237002108246088,0.07254024595022202
1684592023114466600,19.506466552734373,0.06520986557006836,0.03344487398862839,0.06322455406188965
1684592023131339300,19.52333935546875,0.0607810914516449,0.08567385375499725,0.06261368840932846
1684592023148212700,19.540212646484374,0.0429132841527462,0.11881329119205475,0.06536258012056351
1684592023165085400,19.55708544921875,0.03344487398862839,0.12018773704767227,0.05604688450694084
1684592023181959000,19.573958984375,0.031154127791523933,0.08460483700037003,0.03741549700498581
1684592023198831600,19.59083154296875,0.02672535367310047,0.010079276748001575,0.021074850112199783
1684592023215705300,19.607705322265623,0.018936822190880775,-0.06627888232469559,0.016951510682702065
1684592023232577800,19.624577880859373,0.02687807008624077,-0.09514226019382477,0.016493361443281174
1684592023249451300,19.641451171875,0.044135015457868576,-0.09422596544027328,0.01878410577774048
1684592023266324000,19.658323974609374,0.05345070734620094,-0.11331550031900406,0.03039054572582245
1684592023283197400,19.675197509765624,0.05604688450694084,-0.14553864300251007,0.03848451003432274
1684592023300070100,19.692070068359374,0.058948494493961334,-0.16035212576389313,0.03298672288656235
1684592023316956700,19.708956787109376,0.06627888232469559,-0.16172657907009125,0.026114489883184433
1684592023333816600,19.725816650390627,0.07925976812839508,-0.16462817788124084,0.02229658141732216
1684592023350690000,19.74268994140625,0.08949175477027893,-0.17928895354270935,0.014813481830060482
1684592023367562500,19.7595625,0.09804387390613556,-0.20876319706439972,0.006108652334660292
1684592023384435700,19.776435791015626,0.1007927656173706,-0.23426681756973267,-0.012675453908741474
1684592023401309200,19.79330908203125,0.10170906037092209,-0.22831088304519653,-0.04535674303770065
1684592023418182400,19.810182373046874,0.1082758679986,-0.192422553896904,-0.08414668589830399
1684592023435054800,19.827054931640625,0.11743884533643723,-0.1518000066280365,-0.11392636597156525
1684592023451928600,19.843928466796875,0.1270599663257599,-0.1267545372247696,-0.1333213448524475
1684592023468801000,19.860801025390625,0.12232576310634613,-0.12522737681865692,-0.14844025671482086
1684592023485674800,19.8776748046875,0.1059851199388504,-0.144622340798378,-0.15347988903522491
1684592023502547200,19.894547119140626,0.08918632566928864,-0.18356500566005707,-0.13988813757896423
1684592023519421000,19.9114208984375,0.08216137439012527,-0.22052235901355743,-0.11239920556545258
1684592023536293400,19.92829345703125,0.06444628536701202,-0.2506074607372284,-0.0835358202457428
1684592023553167000,19.9451669921875,0.04046982154250145,-0.27550023794174194,-0.04459316283464432
1684592023570033700,19.96203369140625,0.01924225501716137,-0.31383201479911804,0.012217304669320583
1684592023586913300,19.978913330078125,0.029168816283345222,-0.35292738676071167,0.062460970133543015
1684592023603785700,19.99578564453125,0.051770828664302826,-0.38011088967323303,0.08124507963657379
1684592023620659500,20.012659423828126,0.05650503560900688,-0.41859540343284607,0.07849618047475815
1684592023637531000,20.02953076171875,0.06994406878948212,-0.4528038501739502,0.05619960278272629
1684592023654406700,20.04640673828125,0.09392052888870239,-0.4775438904762268,0.01710422709584236
1684592023671278300,20.0632783203125,0.09896016865968704,-0.4967861473560333,-0.03237585723400116
1684592023688151600,20.080151611328127,0.09468411654233932,-0.523511528968811,-0.06994406878948212
1684592023705024300,20.097024169921873,0.10216721147298813,-0.532369077205658,-0.1134682223200798
1684592023721898000,20.11389794921875,0.11957687139511108,-0.5196936130523682,-0.17073683440685272
1684592023738770400,20.1307705078125,0.11010845750570297,-0.5090034604072571,-0.24419337511062622
1684592023755644200,20.14764404296875,0.09834930300712585,-0.5259549617767334,-0.29275718331336975
1684592023772516900,20.164516845703126,0.08827003091573715,-0.5175555944442749,-0.3488040566444397
1684592023789390300,20.181390380859376,0.07742717117071152,-0.48456886410713196,-0.4112650156021118
1684592023806260200,20.19826025390625,0.055894169956445694,-0.47937649488449097,-0.4524984359741211
1684592023823139000,20.21513916015625,0.06017022579908371,-0.48227810859680176,-0.46853363513946533
1684592023840009000,20.232009033203123,0.06643159687519073,-0.5337435007095337,-0.4648684561252594
1684592023856882700,20.248882568359374,0.06520986557006836,-0.6076582074165344,-0.4343251883983612
1684592023873755400,20.26575537109375,0.05971207842230797,-0.6730207800865173,-0.3969096839427948
1684592023890628600,20.282628662109374,0.05054909735918045,-0.6948592066764832,-0.36560285091400146
1684592023907501300,20.299501220703124,0.044745877385139465,-0.6919575929641724,-0.33567044138908386
1684592023924375000,20.316375,0.038637228310108185,-0.6855435371398926,-0.29245173931121826
1684592023941247500,20.33324755859375,0.016951510682702065,-0.6864598393440247,-0.23121249675750732
1684592023958121200,20.350121337890624,-0.02076941914856434,-0.6769914031028748,-0.1719585657119751
1684592023974993700,20.36699365234375,-0.06887505948543549,-0.6710354685783386,-0.11270463466644287
1684592023991867400,20.383867431640624,-0.1241583600640297,-0.6667594313621521,-0.05054909735918045
1684592024008740000,20.400739990234374,-0.17592918872833252,-0.6520986557006836,0.016951510682702065
1684592024025613300,20.41761328125,-0.17867808043956757,-0.6252205967903137,0.08918632566928864
1684592024042486000,20.434486083984375,-0.15515977144241333,-0.6130032539367676,0.1598939746618271
1684592024059359500,20.451359375,-0.13271047174930573,-0.6252205967903137,0.22632557153701782
1684592024076232200,20.468232177734375,-0.11575896292924881,-0.6389650702476501,0.25931230187416077
1684592024093106000,20.48510595703125,-0.07162395119667053,-0.6724098920822144,0.27000242471694946
1684592024109987600,20.501987548828126,-0.06643159687519073,-0.7353290319442749,0.26633724570274353
1684592024126851800,20.518851806640626,-0.07788532227277756,-0.7962628602981567,0.23777928948402405
1684592024143724500,20.535724609375,-0.09682214260101318,-0.7751879692077637,0.16401731967926025
1684592024160598000,20.552597900390627,-0.10125091671943665,-0.7197519540786743,0.07528914511203766
1684592024177470700,20.569470703125,-0.10384709388017654,-0.6907358765602112,0.006719517521560192
1684592024194344200,20.58634423828125,-0.14126259088516235,-0.7327328324317932,-0.04917465150356293
1684592024211217000,20.603216796875,-0.19333885610103607,-0.7657195925712585,-0.1287398487329483
1684592024228090400,20.62009033203125,-0.2428189367055893,-0.7680103182792664,-0.22846360504627228
1684592024244963000,20.636963134765626,-0.29016098380088806,-0.7292203903198242,-0.31932979822158813
1684592024261836500,20.65383642578125,-0.35811975598335266,-0.7121161818504333,-0.34773504734039307
1684592024278709200,20.670709228515626,-0.4005748927593231,-0.7307475209236145,-0.29886582493782043
1684592024295582700,20.687582763671877,-0.40286561846733093,-0.750142514705658,-0.21471913158893585
1684592024312455400,20.704455322265623,-0.4184426963329315,-0.7522805333137512,-0.1241583600640297
1684592024329329000,20.721328857421874,-0.41630467772483826,-0.7583891749382019,-0.02779436856508255
1684592024346198800,20.73819873046875,-0.2996293902397156,-0.6407976150512695,-0.025503624230623245
1684592024363063800,20.755063720703124,-0.1189660057425499,-0.3199406862258911,-0.15745051205158234
1684592024379947500,20.771947509765624,0.12476922571659088,-0.1696678251028061,-0.1459967941045761
1684592024396821200,20.7888212890625,0.31780263781547546,-0.08811730891466141,-0.041691552847623825
1684592024413694000,20.80569384765625,0.3877467215061188,0.005650503560900688,0.05161811411380768
1684592024430567400,20.8225673828125,0.3222314119338989,0.418748140335083,-0.06673702597618103
1684592024447440000,20.83943994140625,-0.10064005106687546,1.789376974105835,-1.165378212928772
1684592024464313600,20.856313720703124,-0.49556443095207214,2.704911231994629,-2.3971879482269287
1684592024481186000,20.87318603515625,-0.5644394755363464,2.349998712539673,-2.9805643558502197
1684592024498059800,20.890059814453124,-0.3614795207977295,1.1371256113052368,-3.0757064819335938
1684592024514932200,20.90693212890625,-0.2116648107767105,-0.04749477282166481,-2.9634599685668945
1684592024531806000,20.923805908203125,-0.18539759516716003,-0.7134906053543091,-2.905733346939087
1684592024548678400,20.940678466796875,-0.20784689486026764,-0.8274169564247131,-2.9081766605377197
1684592024565551900,20.9575517578125,-0.20036379992961884,-0.3043636083602905,-2.8287642002105713
