time,seconds_elapsed,z,y,x
1684592003731410700,0.12341064453125,-1.2675453424453735,-1.6536122560501099,-2.6090054512023926
1684592003748276200,0.140276123046875,-1.5167783498764038,-1.3987287282943726,-2.286621332168579
1684592003765151200,0.157151123046875,-1.9691240787506104,0.8148942589759827,-1.3474160432815552
1684592003782033000,0.174032958984375,-2.5888469219207764,3.617849349975586,-0.18005253374576569
1684592003798905600,0.190905517578125,-2.9768991470336914,4.407087326049805,1.4419474601745605
1684592003815779300,0.207779296875,-1.272737741470337,3.6896259784698486,1.6180293560028076
1684592003832652000,0.224652099609375,0.8439103364944458,3.316845655441284,0.7800748944282532
1684592003849517600,0.241517578125,1.1572842597961426,2.1644482612609863,0.5849034786224365
1684592003866399500,0.2583994140625,0.6438519954681396,2.0566306114196777,0.3859141170978546
1684592003883270700,0.275270751953125,-0.031612277030944824,1.9321668148040771,0.24755313992500305
1684592003900145000,0.292144775390625,-0.5364924073219299,-0.6342308521270752,-0.47311514616012573
1684592003917018600,0.3090185546875,-0.70692378282547,-1.8913915157318115,-1.016479730606079
1684592003933886200,0.32588623046875,-0.7283040881156921,-1.528384804725647,-1.1948524713516235
1684592003950770000,0.34277001953125,-0.35063666105270386,-0.5128213763237,-1.0592403411865234
1684592003967637500,0.359637451171875,0.29397889971733093,0.04795292019844055,-0.6325509548187256
1684592003984511000,0.376510986328125,0.6606507897377014,0.02076941914856434,-0.5238169431686401
1684592004001382400,0.39338232421875,0.3868304193019867,0.003512475173920393,-0.6212499737739563
1684592004018259200,0.41025927734375,-0.13347405195236206,0.14966198801994324,-0.6385068893432617
1684592004035130600,0.427130615234375,-0.2770273983478546,0.4349360466003418,-0.6348416805267334
1684592004052001500,0.44400146484375,-0.2021963894367218,1.035416603088379,-0.674089789390564
1684592004068879400,0.46087939453125,-0.1391245573759079,1.7440202236175537,-0.8718574047088623
1684592004085740000,0.477739990234375,-0.05696318298578262,1.7733417749404907,-0.8856018781661987
1684592004102623000,0.494623046875,0.05207626149058342,1.5143349170684814,-0.5387831330299377
1684592004119497000,0.5114970703125,0.031612277030944824,1.3060299158096313,0.17379115521907806
1684592004136375600,0.52837548828125,-0.09040805697441101,1.3101532459259033,0.8413141369819641
1684592004153243400,0.545243408203125,-0.20952677726745605,1.4602733850479126,0.9747881889343262
1684592004170100700,0.562100830078125,-0.4434881806373596,1.5001323223114014,0.5435173511505127
1684592004186990000,0.578989990234375,-0.637132465839386,1.1271990537643433,0.00809396430850029
1684592004203862000,0.595862060546875,-0.5337435007095337,0.608727216720581,-0.2718350291252136
1684592004220733400,0.6127333984375,-0.3013092875480652,-0.27488934993743896,-0.418748140335083
1684592004237611300,0.629611328125,-0.11270463466644287,-1.6447546482086182,-0.6559165716171265
1684592004254482400,0.646482421875,-0.04214970022439957,-2.62076473236084,-0.8483390808105469
1684592004271355000,0.66335498046875,0.197004035115242,-2.6114490032196045,-1.2767083644866943
1684592004288229000,0.68022900390625,0.18814650177955627,-2.0839667320251465,-1.6641496419906616
1684592004305101600,0.6971015625,-0.14645494520664215,-0.7519751191139221,-1.3605495691299438
1684592004321975000,0.71397509765625,-0.4893030524253845,0.299476683139801,-0.816421389579773
1684592004338847200,0.73084716796875,-0.10766500234603882,1.4146112203598022,-0.5241223573684692
1684592004355722000,0.747721923828125,0.3530801236629486,1.8700112104415894,-0.5299255847930908
1684592004372594200,0.76459423828125,0.08628471940755844,1.2764029502868652,-0.6136141419410706
1684592004389468000,0.781468017578125,-0.7141014933586121,0.6795876026153564,-0.6882924437522888
1684592004406323000,0.798322998046875,-1.4886785745620728,0.58062744140625,-0.7605272531509399
1684592004423216600,0.815216552734375,-1.8351919651031494,1.187522053718567,-0.6890559792518616
1684592004440086800,0.832086669921875,-1.4779884815216064,1.8457293510437012,-0.3878994286060333
1684592004456960500,0.84896044921875,-0.8645270466804504,1.8249598741531372,-0.3211624026298523
1684592004473833000,0.8658330078125,-0.8251262307167053,1.467145562171936,-0.3553708493709564
1684592004490692600,0.882692626953125,-1.1120802164077759,1.0329731702804565,-0.4060726761817932
1684592004507580000,0.899579833984375,-1.3324497938156128,0.8124507665634155,-0.42668938636779785
1684592004524450800,0.916450927734375,-1.314734697341919,1.0322095155715942,-0.4573853611946106
1684592004541325800,0.933325927734375,-0.8613200187683105,1.1074986457824707,-0.6298020482063293
1684592004558200000,0.950199951171875,-0.4954117238521576,0.7767151594161987,-0.770606517791748
1684592004575068400,0.967068359375,-0.49724429845809937,0.2790127098560333,-0.6882924437522888
1684592004591950300,0.983950439453125,-0.6702718734741211,0.051770828664302826,-0.43218716979026794
1684592004608816600,1.000816650390625,-0.7783950567245483,0.23121249675750732,-0.09468411654233932
1684592004625693000,1.01769287109375,-0.6624833345413208,0.5468770861625671,0.0806342139840126
1684592004642565600,1.034565673828125,-0.4709770977497101,0.6550002694129944,-0.06658431142568588
1684592004659438800,1.05143896484375,-0.517250120639801,0.5309945940971375,-0.247094988822937
1684592004676311300,1.068311279296875,-0.7006624341011047,0.35781431198120117,-0.2535090744495392
1684592004693185300,1.085185302734375,-0.8321511745452881,0.2926044464111328,-0.03756821155548096
1684592004710066700,1.102066650390625,-0.8691084980964661,0.47021353244781494,0.3084869384765625
1684592004726932000,1.118931884765625,-0.7110471725463867,0.7831292152404785,0.5342016816139221
1684592004743804200,1.13580419921875,-0.5627595782279968,1.0632109642028809,0.48319441080093384
1684592004760678700,1.1526787109375,-0.5520694851875305,1.1798862218856812,0.3081815242767334
1684592004777546200,1.169546142578125,-0.551305890083313,0.8144360780715942,0.18157969415187836
1684592004794424000,1.186424072265625,-0.6444628238677979,0.2041817009449005,0.08536841720342636
1684592004811292000,1.2032919921875,-0.7738135457038879,-0.23075434565544128,0.0006108652451075613
1684592004828168700,1.220168701171875,-0.8704829812049866,-0.2945897579193115,-0.004886921960860491
1684592004845046000,1.2370458984375,-0.8619308471679688,0.04489859566092491,0.12140946835279465
1684592004861917400,1.25391748046875,-0.6461427211761475,0.4821254014968872,0.33139440417289734
1684592004878789600,1.27078955078125,-0.4836525619029999,0.6328563690185547,0.45494189858436584
1684592004895662800,1.287662841796875,-0.47021353244781494,0.34956762194633484,0.34208452701568604
1684592004912537000,1.304537109375,-0.48227810859680176,-0.17211128771305084,0.03985895588994026
1684592004929397000,1.32139697265625,-0.32528573274612427,-0.5053382515907288,-0.17959438264369965
1684592004946286800,1.338286865234375,-0.00809396430850029,-0.542142927646637,-0.09193521738052368
1684592004963155000,1.355155029296875,0.265573650598526,-0.6288857460021973,0.13118331134319305
1684592004980029000,1.37202880859375,0.36942076683044434,-0.8536841869354248,0.21319197118282318
1684592004996903000,1.38890283203125,0.4184426963329315,-1.0044151544570923,0.2603813111782074
1684592005013775400,1.405775390625,0.4833471179008484,-0.9778425693511963,0.41752639412879944
1684592005030649600,1.422649658203125,0.46792277693748474,-0.8886561989784241,0.5766568183898926
1684592005047521500,1.439521484375,0.31291571259498596,-0.9468411207199097,0.540921151638031
1684592005064395800,1.456395751953125,0.14217889308929443,-0.9486737251281738,0.3741549551486969
1684592005081268000,1.47326806640625,0.08506298810243607,-0.9082038998603821,0.40973785519599915
1684592005098125600,1.49012548828125,0.11041389405727386,-0.7570147514343262,0.6073527932167053
1684592005115015000,1.507014892578125,0.14523321390151978,-0.6676757335662842,0.8229882121086121
1684592005131882500,1.523882568359375,0.11331550031900406,-0.7283040881156921,1.0010554790496826
1684592005148760600,1.540760498046875,0.017867809161543846,-0.7360926270484924,1.0974193811416626
1684592005165624300,1.557624267578125,-0.11392636597156525,-0.6470590233802795,1.1261301040649414
1684592005182505000,1.5745048828125,-0.1788308024406433,-0.4821254014968872,1.152855396270752
1684592005199383800,1.5913837890625,-0.17760907113552094,-0.3675881624221802,1.2079859972000122
1684592005216251000,1.6082509765625,-0.166460782289505,-0.3637702465057373,1.2234103679656982
1684592005233130200,1.625130126953125,-0.23686300218105316,-0.3851505517959595,1.1699596643447876
1684592005250000400,1.64200048828125,-0.3459024429321289,-0.3396410644054413,1.034500241279602
1684592005266873600,1.65887353515625,-0.3914119005203247,-0.2719877362251282,0.9115636348724365
1684592005283746000,1.67574609375,-0.3436116874217987,-0.18524488806724548,0.8790351152420044
1684592005300620300,1.692620361328125,-0.29336804151535034,-0.16264286637306213,0.85994553565979
1684592005317493000,1.709492919921875,-0.27290403842926025,-0.2373211532831192,0.8231409192085266
1684592005334366700,1.72636669921875,-0.23090706765651703,-0.29733866453170776,0.8141306638717651
1684592005351239200,1.7432392578125,-0.19914206862449646,-0.30024027824401855,0.9007207751274109
1684592005368113400,1.760113525390625,-0.3101668357849121,-0.15195272862911224,1.0319041013717651
1684592005384985300,1.7769853515625,-0.5199990272521973,0.06185010448098183,1.0906999111175537
1684592005401859000,1.793859130859375,-0.5639813542366028,0.266642689704895,1.0474811792373657
1684592005418731500,1.8107314453125,-0.5581781268119812,0.3182607889175415,0.9399688839912415
1684592005435606000,1.82760595703125,-0.6423248052597046,0.34162637591362,0.793361246585846
1684592005452480000,1.84447998046875,-0.6918048858642578,0.46792277693748474,0.6812674403190613
1684592005469352200,1.861352294921875,-0.6110179424285889,0.5441282391548157,0.6866125464439392
1684592005486221300,1.87822119140625,-0.5090034604072571,0.5013676285743713,0.6272059082984924
1684592005503101200,1.89510107421875,-0.4050036668777466,0.4329507350921631,0.4124867618083954
1684592005519970800,1.911970703125,-0.29565876722335815,0.41722095012664795,0.1212567538022995
1684592005536845600,1.928845458984375,-0.252287358045578,0.3361285924911499,-0.15042556822299957
1684592005553716700,1.945716796875,-0.26190847158432007,0.2041817009449005,-0.2825251817703247
1684592005570581800,1.962581787109375,-0.19685132801532745,0.11438451707363129,-0.11392636597156525
1684592005587463400,1.97946337890625,-0.21074850857257843,0.0959058403968811,0.17150041460990906
1684592005604337700,1.996337646484375,-0.3407101035118103,0.3202461004257202,0.2727513313293457
1684592005621209900,2.0132099609375,-0.3602577745914459,0.5183191895484924,0.10461067408323288
1684592005638084000,2.030083984375,-0.3393356502056122,0.4723515510559082,-0.16081027686595917
1684592005654965200,2.04696533203125,-0.3669773042201996,0.2837468981742859,-0.30604347586631775
1684592005671830500,2.06383056640625,-0.2906191349029541,0.19333885610103607,-0.2272418737411499
1684592005688703000,2.080702880859375,-0.22892175614833832,0.5273294448852539,-0.05543602257966995
1684592005705577200,2.0975771484375,-0.12751811742782593,1.205847978591919,0.021991148591041565
1684592005722449400,2.114449462890625,-0.1310305893421173,1.623374342918396,-0.07681630551815033
1684592005739323400,2.131323486328125,-0.24190263450145721,1.6875152587890625,-0.3199406862258911
1684592005756195000,2.148195068359375,-0.247094988822937,1.419803500175476,-0.41401392221450806
1684592005773053700,2.1650537109375,-0.1385136991739273,1.274264931678772,-0.30085113644599915
1684592005789942300,2.1819423828125,-0.07742717117071152,1.4095715284347534,-0.23609942197799683
1684592005806805500,2.198805419921875,-0.08659014850854874,1.7690657377243042,-0.4147774875164032
1684592005823688200,2.215688232421875,-0.39843684434890747,1.8689422607421875,-0.7553348541259766
1684592005840562400,2.2325625,-0.7736608386039734,1.4656184911727905,-0.9002626538276672
1684592005857435000,2.249434814453125,-0.9257662892341614,1.1441506147384644,-0.6114761233329773
1684592005874308400,2.266308349609375,-1.1381946802139282,1.275792121887207,-0.10201449692249298
1684592005891178500,2.283178466796875,-1.615127682685852,2.157270669937134,0.4786129295825958
1684592005908057900,2.300057861328125,-2.0190622806549072,3.2782082557678223,0.9685268402099609
1684592005924928000,2.316927978515625,-2.0835087299346924,3.713297128677368,1.0288498401641846
1684592005941801500,2.333801513671875,-2.1059579849243164,3.6471710205078125,0.5067127346992493
1684592005958673700,2.350673583984375,-2.277763843536377,3.3432655334472656,-0.17516560852527618
1684592005975547600,2.367547607421875,-2.526233196258545,3.14626145362854,-0.6070473194122314
1684592005992427800,2.384427734375,-2.7565293312072754,3.2728631496429443,-0.7086036801338196
1684592006009286400,2.401286376953125,-2.8460211753845215,3.5408804416656494,-0.5346598029136658
1684592006026164000,2.4181640625,-2.590373992919922,3.7589592933654785,-0.13500121235847473
1684592006043043300,2.435043212890625,-2.246915102005005,3.615253210067749,0.31612277030944824
1684592006059913200,2.451913330078125,-2.174069404602051,3.081357002258301,0.5236642360687256
1684592006076784000,2.4687841796875,-2.375502109527588,2.6025912761688232,0.47540587186813354
1684592006093659600,2.48565966796875,-2.4678955078125,2.2377521991729736,0.3500257730484009
1684592006110523100,2.502523193359375,-2.249358654022217,1.7982345819473267,0.1498146951198578
1684592006127405800,2.51940576171875,-1.8403842449188232,1.2195924520492554,0.002138028386980295
1684592006144279600,2.536279541015625,-1.500590443611145,0.7443392872810364,-0.09789115190505981
1684592006161152000,2.553152099609375,-1.2541064023971558,0.25045475363731384,-0.27611109614372253
1684592006178026000,2.57002587890625,-0.9431759119033813,-0.12828169763088226,-0.49495357275009155
1684592006194898400,2.5868984375,-0.6284276247024536,-0.24648413062095642,-0.5401576161384583
1684592006211770600,2.6037705078125,-0.3043636083602905,-0.043676864355802536,-0.2321287989616394
1684592006228646400,2.620646484375,0.047800205647945404,0.42638394236564636,0.34376442432403564
1684592006245518800,2.637518798828125,0.38728857040405273,0.788627028465271,0.8602510094642639
1684592006262391000,2.65439111328125,0.619111955165863,0.8671231865882874,1.027169942855835
1684592006279265000,2.67126513671875,0.8849910497665405,0.8141306638717651,0.9340129494667053
1684592006296136400,2.688136474609375,0.8732318878173828,0.21303924918174744,0.31932979822158813
1684592006313012700,2.7050126953125,-0.024892758578062057,-1.1835514307022095,-1.9155206680297852
1684592006329884000,2.7218837890625,-0.6814202070236206,-1.3825408220291138,-3.266754627227783
1684592006346747100,2.7387470703125,-0.21899518370628357,-0.8756753206253052,-2.8463265895843506
1684592006363629800,2.7556298828125,0.7756461501121521,0.023060163483023643,-1.6809484958648682
1684592006380504300,2.77250439453125,1.3432927131652832,1.6980526447296143,-1.1832460165023804
1684592006397376500,2.78937646484375,1.6055065393447876,2.6010642051696777,-0.7515169382095337
1684592006414250500,2.80625048828125,1.3442089557647705,2.535243511199951,-0.20204368233680725
1684592006431123000,2.823123046875,0.7635815739631653,1.7371480464935303,0.010842857882380486
1684592006447997000,2.839996826171875,0.3770565688610077,0.8197811841964722,-0.10751228034496307
1684592006464864000,2.856864013671875,0.2119702398777008,0.20066922903060913,-0.7875580191612244
1684592006481739500,2.873739501953125,-0.294437050819397,-0.3312416672706604,-1.6235270500183105
1684592006498615800,2.89061572265625,-1.0351111888885498,-1.3057245016098022,-2.007455825805664
1684592006515489800,2.90748974609375,-1.6239852905273438,-1.33168625831604,-2.130239725112915
1684592006532362200,2.9243623046875,-2.2291998863220215,-0.5232060551643372,-1.5609134435653687
1684592006549233200,2.941233154296875,-2.6193902492523193,0.13668109476566315,-0.5500841736793518
1684592006566108400,2.9581083984375,-2.866332530975342,0.04535674303770065,0.16203200817108154
1684592006582985000,2.97498486328125,-3.4680347442626953,-0.5587889552116394,0.2503020465373993
1684592006599854800,2.991854736328125,-3.794389486312866,-0.6663012504577637,-0.40362921357154846
1684592006616728600,3.008728515625,-2.657721996307373,-1.1064296960830688,-1.1407908201217651
1684592006633601300,3.025601318359375,-1.386053204536438,-0.5681046843528748,-1.712866187095642
1684592006650464800,3.04246484375,-1.2315043210983276,-0.816726803779602,-1.8626807928085327
1684592006667348000,3.059347900390625,-1.3820825815200806,-1.3029755353927612,-1.3654365539550781
1684592006684221200,3.07622119140625,-1.2192870378494263,-1.588249683380127,-0.7420485615730286
1684592006701094100,3.09309423828125,-0.784503698348999,-1.0163270235061646,-0.4369213581085205
1684592006717968400,3.109968505859375,-0.3723223805427551,-0.5503895878791809,-0.20525072515010834
1684592006734840600,3.126840576171875,-0.19776763021945953,-0.4918992519378662,-0.038637228310108185
1684592006751714600,3.143714599609375,-0.0913243517279625,-0.32162055373191833,-0.056352317333221436
1684592006768586500,3.16058642578125,-0.018478672951459885,0.2718350291252136,-0.32330042123794556
1684592006785460500,3.17746044921875,0.041691552847623825,0.5765040516853333,-0.6824892163276672
1684592006802333000,3.1943330078125,0.22968533635139465,0.3003929853439331,-0.837496280670166
1684592006819196200,3.211196044921875,0.4893030524253845,-0.08460483700037003,-0.6056728959083557
1684592006836069000,3.228069091796875,0.3237585723400116,0.38148534297943115,-0.05650503560900688
1684592006852952800,3.244952880859375,-0.00045814894838258624,1.3727669715881348,0.6079636216163635
1684592006869827000,3.2618271484375,-0.2701551616191864,2.067931652069092,1.0299187898635864
1684592006886699800,3.27869970703125,-0.2909245789051056,2.509739875793457,1.334282398223877
1684592006903568100,3.295568115234375,-0.6039929986000061,2.4025330543518066,1.5986343622207642
1684592006920447200,3.312447265625,-1.23394775390625,2.2041544914245605,1.8358027935028076
1684592006937315600,3.329315673828125,-1.7967073917388916,1.9880609512329102,1.9973766803741455
1684592006954192100,3.346192138671875,-2.158186912536621,1.933235764503479,2.1653645038604736
1684592006971066400,3.36306640625,-2.361604928970337,1.8413006067276,2.4057400226593018
1684592006987936800,3.379936767578125,-2.5676193237304688,1.8072447776794434,2.4726297855377197
1684592007004813800,3.396813720703125,-2.886185646057129,1.7006487846374512,2.3652701377868652
1684592007021685000,3.41368505859375,-3.475517749786377,1.3799445629119873,2.136043071746826
1684592007038557200,3.43055712890625,-4.045607566833496,0.4841107130050659,1.6772832870483398
1684592007055432000,3.447431884765625,-3.233004331588745,-1.2037099599838257,1.8614591360092163
1684592007072304000,3.46430419921875,-1.1902709007263184,-2.754696846008301,2.916881561279297
1684592007089178000,3.48117822265625,1.0534371137619019,-1.8266397714614868,3.735593795776367
1684592007106049000,3.498049072265625,1.254717230796814,4.569119453430176,2.121382236480713
1684592007122925800,3.51492578125,0.5050328373908997,5.37882137298584,0.1498146951198578
1684592007139796700,3.531796630859375,0.14996741712093353,0.23228150606155396,-0.012980886735022068
1684592007156670500,3.54867041015625,-0.204487144947052,-2.774244546890259,-0.38957929611206055
1684592007173542700,3.565542724609375,-0.24678955972194672,-2.3718371391296387,-1.1039862632751465
1684592007190406700,3.58240673828125,-0.05955936014652252,-1.8069393634796143,-1.321606993675232
1684592007207289900,3.599289794921875,0.18997909128665924,-1.39323091506958,-1.0891727209091187
1684592007224163600,3.61616357421875,0.41920626163482666,-0.850171685218811,-0.750142514705658
1684592007241035800,3.633035888671875,0.4717406928539276,-0.37339138984680176,-0.37400224804878235
1684592007257909800,3.64990966796875,0.31642818450927734,0.38087448477745056,-0.041233405470848083
1684592007274782200,3.6667822265625,0.2617557644844055,1.2712105512619019,0.11438451707363129
1684592007291656200,3.68365625,0.2483167201280594,1.6452127695083618,0.1823432743549347
1684592007308528400,3.7005283203125,0.1319468915462494,1.2389874458312988,0.2600758671760559
1684592007325402600,3.717402587890625,0.04764748737215996,0.47021353244781494,0.41951170563697815
1684592007342275300,3.734275390625,-0.023060163483023643,-0.049785517156124115,0.60429847240448
1684592007359149000,3.751149169921875,-0.06505715101957321,-0.2730567753314972,0.547182559967041
1684592007376021000,3.76802099609375,0.07528914511203766,-0.14416420459747314,0.5978843569755554
1684592007392895200,3.784895263671875,-0.00733038317412138,0.6763805150985718,0.7096726894378662
1684592007409768000,3.801767822265625,-0.6224716901779175,1.1943942308425903,0.43829581141471863
1684592007426641700,3.8186416015625,-1.3869695663452148,1.268614411354065,0.12064588814973831
1684592007443514000,3.83551416015625,-1.474017858505249,1.1036807298660278,-0.09514226019382477
1684592007460381400,3.85238134765625,-0.9364564418792725,1.2206615209579468,-0.17180584371089935
1684592007477260500,3.869260498046875,-0.07620543986558914,1.2906055450439453,-0.19562959671020508
1684592007494134000,3.886134033203125,0.7615962624549866,0.967915952205658,-0.18875735998153687
1684592007511006700,3.9030068359375,1.1884382963180542,0.25182920694351196,-0.12446379661560059
1684592007527870500,3.919870361328125,1.2220358848571777,-0.5859724879264832,0.11438451707363129
1684592007544753700,3.936753662109375,1.1424707174301147,-1.2570079565048218,0.6200281977653503
1684592007561627100,3.953627197265625,1.0012081861495972,-1.5928311347961426,1.242347240447998
1684592007578499300,3.970499267578125,0.750142514705658,-1.5758795738220215,1.5919147729873657
1684592007595373600,3.98737353515625,0.4103487432003021,-1.2362385988235474,1.5832099914550781
1684592007612246000,4.00424609375,0.1466076523065567,-0.7031059265136719,1.4136948585510254
1684592007629119500,4.021119384765625,0.005039638374000788,0.016493361443281174,1.3602441549301147
1684592007645990000,4.037989990234375,-0.016340645030140877,0.7203628420829773,1.3516920804977417
1684592007662869000,4.054868896484375,0.08536841720342636,1.216843605041504,1.1424707174301147
1684592007679738600,4.071738525390625,0.2623666226863861,1.3545936346054077,0.837496280670166
1684592007696612600,4.088612548828125,0.39736783504486084,0.9615018963813782,0.6537785530090332
1684592007713484800,4.10548486328125,0.42898011207580566,0.08200865983963013,0.46242499351501465
1684592007730348300,4.122348388671875,0.347276896238327,-0.7464773058891296,0.009773843921720982
1684592007747231200,4.139231201171875,0.280539870262146,-1.19607412815094,-0.5542075037956238
1684592007764105000,4.15610498046875,0.43737950921058655,-1.2447906732559204,-0.817337691783905
1684592007780977700,4.172977783203125,0.5175555944442749,-1.1522445678710938,-0.8720101118087769
1684592007797852000,4.189851806640625,0.455705463886261,-0.9891435503959656,-0.8802568316459656
1684592007814724600,4.206724609375,0.3998112976551056,-0.7632761001586914,-0.8432994484901428
1684592007831598000,4.22359814453125,0.355981707572937,-0.45662176609039307,-0.6969972252845764
1684592007848467500,4.240467529296875,0.275958389043808,-0.1469130963087082,-0.4674646258354187
1684592007865347000,4.25734716796875,0.16203200817108154,0.10476338863372803,-0.2632829248905182
1684592007882216700,4.274216796875,0.04092797264456749,0.2854267954826355,-0.1394299864768982
1684592007899090400,4.29109033203125,-0.002138028386980295,0.3885102868080139,-0.09422596544027328
1684592007915963100,4.307963134765625,0.02275473065674305,0.4103487432003021,-0.09498954564332962
1684592007932837400,4.32483740234375,0.019394971430301666,0.30925053358078003,-0.09529497474431992
1684592007949709800,4.341709716796875,-0.0328340083360672,0.12308934330940247,-0.06414084881544113
1684592007966583300,4.358583251953125,-0.0910189226269722,-0.03985895588994026,-0.0032070425804704428
1684592007983455500,4.37545556640625,-0.12996158003807068,-0.08261952549219131,0.058948494493961334
1684592008000330200,4.392330322265625,-0.17776179313659668,-0.010537425056099892,0.12431107461452484
1684592008017202200,4.4092021484375,-0.204487144947052,0.13225232064723969,0.21349740028381348
1684592008034076000,4.426075927734375,-0.19425514340400696,0.28848111629486084,0.3147483170032501
1684592008050948600,4.442948486328125,-0.16737708449363708,0.3911064863204956,0.394618958234787
1684592008067822800,4.45982275390625,-0.14706580340862274,0.4109596014022827,0.432645320892334
1684592008084695000,4.476695068359375,-0.11224649101495743,0.3828597962856293,0.42577308416366577
1684592008101558300,4.493558349609375,-0.0835358202457428,0.3349068760871887,0.3683517575263977
1684592008118422500,4.510422607421875,-0.011759156361222267,0.26740625500679016,0.33292156457901
1684592008135316000,4.52731591796875,0.022449297830462456,0.18157969415187836,0.32559117674827576
1684592008152188000,4.54418798828125,-0.016340645030140877,0.07559457421302795,0.3065016269683838
1684592008169062000,4.561061767578125,-0.08185594528913498,-0.001832595793530345,0.2646573781967163
1684592008185931800,4.577931884765625,-0.08384125679731369,-0.01191187184303999,0.2376265823841095
1684592008202807600,4.5948076171875,-0.06383541971445084,0.01160643994808197,0.2347249686717987
1684592008219683000,4.61168310546875,-0.07513642311096191,0.018020525574684143,0.260992169380188
1684592008236554000,4.628553955078125,-0.11026117950677872,0.019547687843441963,0.2768746614456177
1684592008253426400,4.645426513671875,-0.17531833052635193,0.022602014243602753,0.24144448339939117
1684592008270305000,4.662304931640625,-0.2255619913339615,-0.00015271631127689034,0.1843285858631134
1684592008287173600,4.679173583984375,-0.2509129047393799,-0.06750060617923737,0.13347405195236206
1684592008304047000,4.696047119140625,-0.29245173931121826,-0.2041817009449005,0.0913243517279625
1684592008320919000,4.7129189453125,-0.327271044254303,-0.3300199508666992,0.038026362657547
1684592008337793300,4.729793212890625,-0.3068070709705353,-0.37140607833862305,-0.033139441162347794
1684592008354666000,4.746666015625,-0.24923302233219147,-0.34376442432403564,-0.07208210229873657
1684592008371539700,4.763539794921875,-0.21013765037059784,-0.3055853247642517,-0.05910121276974678
1684592008388412200,4.780412109375,-0.22663100063800812,-0.27030786871910095,-0.058184914290905
1684592008405286400,4.797286376953125,-0.2811507284641266,-0.22739458084106445,-0.09422596544027328
1684592008422158800,4.814158935546875,-0.35811975598335266,-0.1869247704744339,-0.12431107461452484
1684592008439032300,4.8310322265625,-0.4456261992454529,-0.14248432219028473,-0.1466076523065567
1684592008455898600,4.847898681640625,-0.43936482071876526,-0.10674870014190674,-0.10949759185314178
1684592008472768800,4.864768798828125,-0.34177911281585693,-0.19853121042251587,-0.01572977937757969
1684592008489651700,4.881651611328125,-0.2483167201280594,-0.2747366428375244,0.09728029370307922
1684592008506525400,4.898525390625,-0.17088955640792847,-0.08506298810243607,0.07254024595022202
1684592008523397600,4.915397705078125,-0.016951510682702065,0.294895201921463,-0.05421429127454758
1684592008540271600,4.932271728515625,0.08735372871160507,0.4576907753944397,0.02015855349600315
1684592008557145300,4.949145263671875,0.020922135561704636,0.3854559659957886,0.38087448477745056
1684592008574016500,4.9660166015625,-0.1992947906255722,0.9726501703262329,0.7041749358177185
1684592008590890200,4.98289013671875,-0.5444336533546448,2.7264442443847656,0.4769330322742462
1684592008607764500,4.999764404296875,-0.8648324608802795,3.7502543926239014,-0.16982053220272064
1684592008624637200,5.01663720703125,-0.9382890462875366,2.947882890701294,-0.8856018781661987
1684592008641510700,5.0335107421875,-0.7851145267486572,1.7570011615753174,-1.825876235961914
1684592008658380500,5.050380615234375,-0.39767327904701233,1.1447614431381226,-2.696969985961914
1684592008675259600,5.067259765625,0.11591167747974396,0.8097018599510193,-3.1899383068084717
1684592008692119000,5.084119140625,0.4918992519378662,0.43768495321273804,-3.2780556678771973
1684592008709003800,5.101003662109375,0.6378960609436035,-0.11423180252313614,-2.970179557800293
1684592008725873400,5.117873291015625,0.6352998614311218,-0.5499314665794373,-2.4463624954223633
1684592008742752800,5.134752685546875,0.5497786998748779,-0.4607451260089874,-1.9399553537368774
1684592008759622700,5.15162255859375,0.49846604466438293,0.4283692538738251,-1.398576021194458
1684592008776497400,5.168497314453125,0.5088507533073425,1.6074918508529663,-0.9332493543624878
1684592008793367000,5.185366943359375,0.5424483418464661,2.64138126373291,-0.608727216720581
1684592008810232600,5.202232666015625,0.49556443095207214,3.3286046981811523,-0.45524731278419495
1684592008827101400,5.219101318359375,0.45875978469848633,3.6002869606018066,-0.37430769205093384
1684592008843988700,5.23598876953125,0.5329799056053162,3.4636058807373047,-0.3205515444278717
1684592008860861400,5.252861328125,0.6661485433578491,3.1398472785949707,-0.21059578657150269
1684592008877735400,5.2697353515625,0.77472984790802,2.624277114868164,-0.051770828664302826
1684592008894610400,5.2866103515625,0.8086328506469727,2.004859685897827,0.09941831976175308
1684592008911478800,5.303478759765625,0.841619610786438,1.4110987186431885,0.1837177276611328
1684592008928351500,5.3203515625,0.8046622276306152,1.0648908615112305,0.1898263692855835
1684592008945228000,5.33722802734375,0.6446155309677124,1.0309878587722778,0.19226983189582825
1684592008962100500,5.3541005859375,0.4440990388393402,1.0926852226257324,0.25534167885780334
1684592008978974500,5.370974365234375,0.270766019821167,1.1476631164550781,0.3543018400669098
1684592008995847000,5.387846923828125,0.1849394589662552,1.2023354768753052,0.4512766897678375
1684592009012721000,5.404720947265625,0.19318613409996033,1.2350168228149414,0.5364924073219299
1684592009029593000,5.421593017578125,0.2658790946006775,1.1869112253189087,0.6017022728919983
1684592009046471200,5.43847119140625,0.2974913716316223,0.9900598526000977,0.6896668672561646
1684592009063339500,5.455339599609375,0.26053401827812195,0.7263187766075134,0.8553640842437744
1684592009080213800,5.4722138671875,0.21135938167572021,0.5952881574630737,0.899040937423706
1684592009097086200,5.489086181640625,0.25992316007614136,0.5432119369506836,0.5991060733795166
1684592009113960200,5.505960205078125,0.41111230850219727,0.3407101035118103,0.06154467165470123
1684592009130822700,5.52282275390625,0.3689626157283783,0.24465152621269226,-0.28787025809288025
1684592009147705300,5.539705322265625,0.1976149082183838,0.6870706677436829,-0.20234911143779755
1684592009164578600,5.55657861328125,0.10033461451530457,1.3107640743255615,0.12751811742782593
1684592009181452300,5.573452392578125,0.04184427112340927,1.4782938957214355,0.38759398460388184
1684592009198312400,5.5903125,0.08170322328805923,1.2014192342758179,0.5839871764183044
1684592009215201800,5.607201904296875,0.04153883829712868,0.5516113042831421,0.6821837425231934
1684592009232071700,5.62407177734375,-0.31612277030944824,-0.551305890083313,0.769690215587616
1684592009248945000,5.64094482421875,-0.7133378982543945,-1.313360333442688,0.7858781218528748
1684592009265814800,5.657814697265625,-0.3930917978286743,-1.0535898208618164,0.38667771220207214
1684592009282691800,5.67469189453125,0.3500257730484009,0.18677204847335815,-0.41233405470848083
1684592009299564000,5.69156396484375,0.5403103232383728,0.42302417755126953,-0.8115344643592834
1684592009316437800,5.708437744140625,0.3631593883037567,-0.4323398768901825,-0.38637226819992065
1684592009333307600,5.7253076171875,0.05650503560900688,-1.3278683423995972,0.15271630883216858
1684592009350187300,5.742187255859375,-0.15531249344348907,-1.7913622856140137,0.5511531829833984
1684592009367057000,5.759056884765625,-0.25106561183929443,-1.8167132139205933,0.7189884185791016
1684592009383921200,5.775921142578125,-0.35903605818748474,-1.5135713815689087,0.6540839672088623
1684592009400807400,5.792807373046875,-0.346818745136261,-0.9714284539222717,0.4251621961593628
1684592009417677300,5.80967724609375,-0.1215621829032898,-0.5372560024261475,0.2952006161212921
1684592009434549800,5.8265498046875,0.26251932978630066,-0.2799290120601654,0.9312640428543091
1684592009451423500,5.843423583984375,0.3663664162158966,-0.7545713186264038,2.755307674407959
1684592009468293400,5.86029345703125,0.3982841372489929,-0.7811439037322998,3.5431711673736572
1684592009485169200,5.877169189453125,0.24724771082401276,0.16401731967926025,2.909245729446411
1684592009502045700,5.894045654296875,0.06887505948543549,1.1213958263397217,1.2122620344161987
1684592009518916000,5.910916015625,-0.06322455406188965,0.9784533977508545,0.051770828664302826
1684592009535788300,5.927788330078125,-0.01710422709584236,-0.027641652151942253,0.025961773470044136
1684592009552662800,5.944662841796875,0.16737708449363708,-0.9949467778205872,0.4386012554168701
1684592009569535500,5.961535400390625,0.3332269787788391,-1.2725850343704224,0.5984952449798584
1684592009586409000,5.978408935546875,0.3949243724346161,-1.2515101432800293,0.6229298114776611
1684592009603281400,5.995281494140625,0.32100969552993774,-1.2040153741836548,0.6661485433578491
1684592009620155400,6.0121552734375,0.18875735998153687,-1.0824532508850098,0.7672467231750488
1684592009637028000,6.029028076171875,0.04077525436878204,-0.8706356883049011,0.9369145631790161
1684592009653901600,6.045901611328125,-0.01618792861700058,-0.6774495840072632,1.1369729042053223
1684592009670763300,6.06276318359375,-0.051770828664302826,-0.5213735103607178,1.3005321025848389
1684592009687645700,6.079645751953125,-0.1560760736465454,-0.275958389043808,1.1853840351104736
1684592009704523500,6.0965234375,-0.3643811047077179,0.030085112899541855,0.5375614166259766
1684592009721394200,6.113394287109375,-0.5442809462547302,0.09697485715150833,-0.2698497176170349
1684592009738256400,6.13025634765625,-0.43737950921058655,0.032681290060281754,-0.7136433124542236
1684592009755141000,6.14714111328125,-0.02733621932566166,-0.31444287300109863,-0.6514877676963806
1684592009772013300,6.164013427734375,0.3718642294406891,-1.1901181936264038,-0.20601430535316467
1684592009788884700,6.180884765625,0.5502368807792664,-1.8350391387939453,0.06215553730726242
1684592009805762300,6.19776220703125,0.5798638463020325,-1.849547266960144,-0.023976460099220276
1684592009822633500,6.214633544921875,0.5366451144218445,-1.6673567295074463,-0.21533000469207764
1684592009839506000,6.231505859375,0.42149701714515686,-0.8332201838493347,-0.8187121152877808
1684592009856379600,6.248379638671875,0.28328874707221985,1.0542006492614746,-1.938580870628357
1684592009873249800,6.265249755859375,0.22388210892677307,2.5257749557495117,-2.694068431854248
1684592009890130200,6.282130126953125,0.3539963960647583,3.0555479526519775,-2.8678596019744873
1684592009906998800,6.298998779296875,0.6407976150512695,2.6842947006225586,-2.6174049377441406
1684592009923872300,6.315872314453125,0.8426886200904846,1.9294178485870361,-2.322204113006592
1684592009940734000,6.33273388671875,0.7664831876754761,1.1913399696350098,-2.2375993728637695
1684592009957619000,6.349618896484375,0.5320636034011841,0.3536909818649292,-2.2881484031677246
1684592009974491400,6.366491455078125,0.28557950258255005,-0.39904773235321045,-2.322204113006592
1684592009991365400,6.383365478515625,0.051770828664302826,-0.93095862865448,-2.1904101371765137
1684592010008237800,6.40023779296875,-0.07223481684923172,-1.00502610206604,-1.7675385475158691
1684592010025112000,6.417112060546875,0.0039706239476799965,0.019547687843441963,-1.0044151544570923
1684592010041984500,6.433984619140625,0.13301590085029602,1.9113973379135132,-0.4356996417045593
1684592010058855000,6.45085498046875,0.10659598559141159,3.1589369773864746,-0.3107776939868927
1684592010075720200,6.46772021484375,-0.06368270516395569,3.375030517578125,-0.3715587854385376
1684592010092604400,6.4846044921875,-0.22846360504627228,2.998432159423828,-0.3680463135242462
1684592010109477000,6.50147705078125,-0.24862214922904968,2.2119431495666504,-0.2779437005519867
1684592010126363600,6.51836376953125,-0.07101308554410934,1.2388347387313843,-0.06963863968849182
1684592010143223300,6.535223388671875,0.24526239931583405,0.40194934606552124,0.17928895354270935
1684592010160099800,6.552099853515625,0.5199990272521973,-0.1466076523065567,0.37491855025291443
1684592010176959700,6.568959716796875,0.6162103414535522,-0.42500948905944824,0.5309945940971375
1684592010193843500,6.585843505859375,0.5146539807319641,-0.4291328489780426,0.6907358765602112
1684592010210716000,6.6027158203125,0.32971450686454773,-0.16035212576389313,0.7544185519218445
1684592010227590400,6.61959033203125,0.1921171247959137,0.21303924918174744,0.6430884003639221
1684592010244462300,6.63646240234375,0.13958270847797394,0.34804046154022217,0.6032294034957886
1684592010261336300,6.65333642578125,0.16371189057826996,-0.128434419631958,0.7423539757728577
1684592010278213600,6.670213623046875,0.2541199326515198,-0.7698429226875305,0.7776314616203308
1684592010295085800,6.6870859375,0.4080579876899719,-0.8188648819923401,0.5387831330299377
1684592010311955200,6.703955078125,0.47998735308647156,-0.27641651034355164,0.2635883390903473
1684592010328829200,6.7208291015625,0.2626720666885376,0.5062545537948608,0.16523905098438263
1684592010345701400,6.737701416015625,0.11224649101495743,1.0627528429031372,0.3107776939868927
1684592010362576000,6.754575927734375,0.14385876059532166,1.2545645236968994,0.5830708742141724
1684592010379448000,6.771447998046875,0.15241087973117828,0.9381362795829773,0.917672336101532
1684592010396321500,6.788321533203125,-0.06291911751031876,0.11499538272619247,1.1954632997512817
1684592010413194200,6.8051943359375,-0.39248090982437134,-0.8132143616676331,1.4049900770187378
1684592010430066700,6.822066650390625,-0.5853615999221802,-1.161102056503296,1.4682146310806274
1684592010446941000,6.83894091796875,-0.4607451260089874,-0.12889257073402405,1.2586878538131714
1684592010463814400,6.855814453125,-0.16569720208644867,1.7348573207855225,0.7596109509468079
1684592010480687000,6.87268701171875,-0.18707747757434845,2.126880168914795,0.3897320330142975
1684592010497560800,6.889560791015625,-0.23548854887485504,0.736245334148407,0.4605923891067505
1684592010514433500,6.90643359375,-0.12293662875890732,-0.8196284174919128,0.5830708742141724
1684592010531307300,6.923307373046875,0.1082758679986,-1.171334147453308,0.303600013256073
1684592010548179700,6.9401796875,0.25213462114334106,-0.8810204267501831,-0.1088867336511612
1684592010565054000,6.957053955078125,0.19379699230194092,-0.5858197808265686,-0.41004329919815063
1684592010581926700,6.9739267578125,0.1336267739534378,-0.4265366494655609,-0.44577890634536743
1684592010598800100,6.990800048828125,0.2819143235683441,-0.37659841775894165,-0.18768835067749023
1684592010615672300,7.00767236328125,0.4836525619029999,-0.7754934430122375,0.4651738703250885
1684592010632546600,7.024546630859375,0.5592471361160278,-1.2705997228622437,1.091310739517212
1684592010649419000,7.0414189453125,0.5342016816139221,-1.324508547782898,1.2957979440689087
1684592010666290200,7.058290283203125,0.38988474011421204,-1.259145975112915,1.3573426008224487
1684592010683167700,7.075167724609375,0.18799377977848053,-1.2570079565048218,1.3855950832366943
1684592010700039400,7.092039306640625,0.1365283876657486,-1.2188289165496826,1.3529138565063477
1684592010716911900,7.108911865234375,0.19868391752243042,-1.1114692687988281,1.2580770254135132
1684592010733785300,7.125785400390625,0.1950187236070633,-0.7948883771896362,0.7590000629425049
1684592010750657800,7.14265771484375,0.1463022232055664,-0.46441030502319336,-0.013286318629980087
1684592010767532000,7.159531982421875,0.1134682223200798,-0.5277875661849976,-0.45463645458221436
1684592010784404500,7.176404541015625,0.13255776464939117,-0.9045386910438538,-0.46273043751716614
1684592010801278200,7.1932783203125,0.14248432219028473,-1.251968264579773,-0.33337971568107605
1684592010818150700,7.210150634765625,0.11636982858181,-1.4214833974838257,-0.24358251690864563
1684592010835024400,7.2270244140625,0.07101308554410934,-1.43751859664917,-0.1915062516927719
1684592010851897300,7.2438974609375,0.010995574295520782,-1.3987287282943726,-0.09972374886274338
1684592010868771000,7.26077099609375,-0.08521570265293121,-1.333060622215271,0.022449297830462456
1684592010885642200,7.277642333984375,-0.19914206862449646,-1.190423607826233,0.08964447677135468
1684592010902518500,7.2945185546875,-0.27320948243141174,-0.9734137654304504,0.07131851464509964
1684592010919390000,7.311389892578125,-0.29275718331336975,-0.7513642311096191,0.02382374368607998
1684592010936263400,7.328263427734375,-0.29733866453170776,-0.5849034786224365,-0.01924225501716137
1684592010953136000,7.34513623046875,-0.30283644795417786,-0.48090365529060364,-0.05955936014652252
1684592010970010400,7.36201025390625,-0.28099802136421204,-0.4150829315185547,-0.0907134860754013
1684592010986882600,7.378882568359375,-0.2200642079114914,-0.3877467215061188,-0.11743884533643723
1684592011003756500,7.395756591796875,-0.12629638612270355,-0.4082106947898865,-0.14248432219028473
1684592011020628700,7.412628662109375,-0.0555887371301651,-0.521984338760376,-0.13347405195236206
1684592011037503000,7.4295029296875,-0.04657847434282303,-0.711963415145874,-0.10659598559141159
1684592011054375700,7.446375732421875,-0.07147123664617538,-0.9266825914382935,-0.08735372871160507
1684592011071249200,7.463249267578125,-0.11514809727668762,-1.1146763563156128,-0.07452555745840073
1684592011088113200,7.480113037109375,-0.1391245573759079,-1.2762502431869507,-0.0555887371301651
1684592011104995600,7.49699560546875,-0.11133018881082535,-1.3759739398956299,-0.029168816283345222
1684592011121868300,7.513868408203125,-0.06734789162874222,-1.4445436000823975,0.012828170321881771
1684592011138742000,7.530741943359375,-0.036651913076639175,-1.4792101383209229,0.036651913076639175
1684592011155614500,7.547614501953125,0.038179077208042145,-1.3658946752548218,-0.01878410577774048
1684592011172488400,7.564488525390625,0.18936823308467865,-1.147357702255249,-0.09605856239795685
1684592011189360600,7.581360595703125,0.3604104816913605,-1.0073168277740479,-0.058184914290905
1684592011206231800,7.598231689453125,0.4346306324005127,-1.1084150075912476,0.13637566566467285
1684592011223109600,7.615109619140625,0.4612032473087311,-0.8562803864479065,0.006261368747800589
1684592011239981300,7.631981201171875,0.31352660059928894,0.3959933817386627,-1.132238745689392
1684592011256853800,7.648853759765625,0.0003054326225537807,1.43751859664917,-2.350762128829956
1684592011273727200,7.665727294921875,-0.17791450023651123,1.4679092168807983,-2.819448471069336
1684592011290599700,7.682599609375,-0.15577064454555511,0.9723447561264038,-2.7794368267059326
1684592011307474000,7.699473876953125,-0.04260785132646561,0.34437528252601624,-2.531883716583252
1684592011324349400,7.716349365234375,-0.013133603148162365,-0.17608191072940826,-2.233170509338379
1684592011341217000,7.733217041015625,-0.036041051149368286,-0.3988949954509735,-1.904219627380371
1684592011358092500,7.750092529296875,-0.027641652151942253,-0.2845104932785034,-1.603826642036438
1684592011374966800,7.766966796875,-0.03894266113638878,-0.015577063895761967,-1.3480268716812134
1684592011391839000,7.7838388671875,-0.098502017557621,0.21212296187877655,-1.0427470207214355
1684592011408713000,7.800712890625,-0.19288070499897003,0.47219884395599365,-0.6827946305274963
1684592011425585200,7.817585205078125,-0.23625212907791138,0.8938485980033875,-0.39385536313056946
1684592011442459600,7.834459716796875,-0.1921171247959137,1.2287554740905762,-0.3914119005203247
1684592011459331800,7.851331787109375,-0.10277807712554932,1.2221885919570923,-0.5713117122650146
1684592011476205600,7.86820556640625,-0.03497203439474106,0.9766207933425903,-0.6710354685783386
1684592011493078000,7.885078125,0.006108652334660292,0.6627888083457947,-0.5707008838653564
1684592011509952000,7.901951904296875,0.029016099870204926,0.33368512988090515,-0.32009339332580566
1684592011526824200,7.91882421875,0.047189339995384216,0.03848451003432274,-0.08521570265293121
1684592011543698200,7.9356982421875,0.045204028487205505,-0.10735956579446793,-0.02382374368607998
1684592011560571000,7.95257080078125,0.052228979766368866,-0.07162395119667053,-0.1310305893421173
1684592011577443000,7.969443115234375,0.054825156927108765,-0.016951510682702065,-0.2587014436721802
1684592011594319000,7.986319091796875,0.05390885844826698,-0.07299839705228806,-0.2506074607372284
1684592011611191000,8.00319091796875,0.08261952549219131,-0.1699732542037964,-0.13439035415649414
1684592011628063200,8.020063232421874,0.13225232064723969,-0.16569720208644867,0.007788531947880983
1684592011644937700,8.036937744140625,0.15760323405265808,0.0032070425804704428,0.14324790239334106
1684592011661810200,8.05381005859375,0.14156801998615265,0.252287358045578,0.29184088110923767
1684592011678684000,8.070683837890625,0.09086620807647705,0.37827831506729126,0.4352414906024933
1684592011695556400,8.087556396484375,0.06841690838336945,0.3168863356113434,0.5340489149093628
1684592011712430300,8.104430419921876,0.08139779418706894,0.032070424407720566,0.5568036437034607
1684592011729302800,8.121302734375,0.11423180252313614,-0.31093040108680725,0.5878050923347473
1684592011746174000,8.138174072265626,0.1748601794242859,-0.5821545720100403,0.6633996367454529
1684592011763051800,8.1550517578125,0.20799961686134338,-0.6772968173027039,0.7240280508995056
1684592011779932400,8.171932373046875,0.1598939746618271,-0.5587889552116394,0.7290676832199097
1684592011796795600,8.188795654296875,0.014966198243200779,-0.28695395588874817,0.6852380633354187
1684592011813669000,8.205669189453126,-0.13011430203914642,0.07895433157682419,0.6713408827781677
1684592011830541600,8.22254150390625,-0.197004035115242,0.3488040566444397,0.7122688889503479
1684592011847416000,8.239416015625,-0.16569720208644867,0.41828998923301697,0.7562511563301086
1684592011864288300,8.256288330078124,-0.0679587572813034,0.2808452844619751,0.7209737300872803
1684592011881161700,8.27316162109375,0.030237829312682152,0.06948592513799667,0.5865833759307861
1684592011898034400,8.290034423828125,0.04092797264456749,-0.060475658625364304,0.42760565876960754
1684592011914908700,8.30690869140625,-0.027183502912521362,-0.05467243865132332,0.32299500703811646
1684592011931781000,8.323781005859376,0.034666601568460464,0.13209961354732513,0.32070425152778625
1684592011948654800,8.34065478515625,0.08552113175392151,0.2590068578720093,0.3430008292198181
1684592011965527300,8.35752734375,-0.04046982154250145,0.20723603665828705,0.35582900047302246
1684592011982401000,8.374401123046875,-0.1765400618314743,0.24877487123012543,0.399200439453125
1684592011999274000,8.39127392578125,-0.18967366218566895,0.42531493306159973,0.5259549617767334
1684592012016147700,8.408147705078125,-0.07895433157682419,0.5340489149093628,0.7877107262611389
1684592012033020000,8.42502001953125,0.012522737495601177,0.5380195379257202,0.9416487812995911
1684592012049894400,8.441894287109376,0.060475658625364304,0.5820018649101257,0.8753699064254761
1684592012066766600,8.4587666015625,0.0708603709936142,0.6582072973251343,0.7530441284179688
1684592012083640300,8.475640380859375,-0.003359758760780096,0.6436992287635803,0.7615962624549866
1684592012100512800,8.4925126953125,-0.15790866315364838,0.4729624092578888,0.8591819405555725
1684592012117387000,8.509386962890625,-0.25106561183929443,0.266184538602829,0.7602217793464661
1684592012134259200,8.52625927734375,-0.09178250283002853,0.27320948243141174,0.46639561653137207
1684592012151133000,8.5431328125,0.2145664244890213,0.34987306594848633,0.2503020465373993
1684592012168005400,8.56000537109375,0.4535674452781677,0.2968805134296417,0.2483167201280594
1684592012184879600,8.576879638671874,0.5094616413116455,0.1560760736465454,0.3604104816913605
1684592012201752300,8.59375244140625,0.4703662395477295,0.0861319974064827,0.4453207552433014
1684592012218615000,8.610614990234374,0.3830125033855438,0.1160643994808197,0.4538728892803192
1684592012235498200,8.627498291015625,0.2477058619260788,0.19868391752243042,0.43646320700645447
1684592012252372500,8.64437255859375,0.12064588814973831,0.3361285924911499,0.4205807149410248
1684592012269245000,8.661244873046876,0.04001167416572571,0.5280929803848267,0.3831652104854584
1684592012286115800,8.67811572265625,-0.022602014243602753,0.6911939978599548,0.32910364866256714
1684592012302993700,8.69499365234375,-0.05757404863834381,0.7893906235694885,0.2768746614456177
1684592012319864800,8.71186474609375,-0.06383541971445084,0.8336783647537231,0.24724771082401276
1684592012336737500,8.728737548828125,-0.058184914290905,0.8367326855659485,0.25992316007614136
1684592012353611300,8.745611328125,-0.03145955875515938,0.7930558323860168,0.3127630054950714
1684592012370470400,8.762470458984374,0.011301007121801376,0.6831000447273254,0.3770565688610077
1684592012387350000,8.77935009765625,0.09376781433820724,0.4856378734111786,0.42531493306159973
1684592012404230400,8.79623046875,0.21044307947158813,0.21380282938480377,0.4450153410434723
1684592012421104000,8.813104248046875,0.29077184200286865,-0.10186178237199783,0.44455718994140625
1684592012437976600,8.8299765625,0.32498031854629517,-0.3706424832344055,0.41172316670417786
1684592012454850600,8.8468505859375,0.3220787048339844,-0.5297728776931763,0.3423899710178375
1684592012471722800,8.86372265625,0.2932153046131134,-0.5590944290161133,0.2532036304473877
1684592012488596700,8.8805966796875,0.25595253705978394,-0.5177083015441895,0.1866193264722824
1684592012505469200,8.89746923828125,0.20616702735424042,-0.4737260043621063,0.1560760736465454
1684592012522343400,8.914343505859375,0.1589776873588562,-0.43707409501075745,0.1368338167667389
1684592012539216100,8.931216064453125,0.11942415684461594,-0.4567744731903076,0.13469578325748444
1684592012556089600,8.948089599609375,0.0861319974064827,-0.5584835410118103,0.15515977144241333
1684592012572961500,8.96496142578125,0.039706241339445114,-0.7344127297401428,0.19349156320095062
1684592012589836300,8.981836181640626,-0.02687807008624077,-0.9392052888870239,0.2324342280626297
1684592012606708500,8.99870849609375,-0.1033889427781105,-1.0838276147842407,0.2678644061088562
1684592012623582200,9.015582275390624,-0.19333885610103607,-1.1297953128814697,0.289244681596756
1684592012640455000,9.032454833984374,-0.32849279046058655,-1.1151344776153564,0.32421672344207764
1684592012657329200,9.0493291015625,-0.43478333950042725,-1.038318157196045,0.35155296325683594
1684592012674201000,9.066201171875,-0.44516804814338684,-0.8604037165641785,0.28787025809288025
1684592012691064600,9.083064697265625,-0.3724750876426697,-0.6185010671615601,0.12721268832683563
1684592012707947500,9.099947509765625,-0.28878653049468994,-0.4804455041885376,-0.02519819140434265
1684592012724821800,9.11682177734375,-0.22708915174007416,-0.5154175758361816,-0.10613783448934555
1684592012741694200,9.133694091796874,-0.1485929638147354,-0.5916230082511902,-0.1469130963087082
1684592012758568000,9.15056787109375,-0.05345070734620094,-0.6430884003639221,-0.16798794269561768
1684592012775440400,9.1674404296875,0.05971207842230797,-0.7385360598564148,-0.13958270847797394
1684592012792314400,9.184314453125,0.14828753471374512,-0.8917105197906494,-0.06734789162874222
1684592012809186800,9.201186767578125,0.16584990918636322,-1.0167851448059082,-0.0328340083360672
1684592012826056200,9.21805615234375,0.12247848510742188,-0.9572258591651917,-0.1420261710882187
1684592012842937300,9.234937255859375,0.1560760736465454,-0.6470590233802795,-0.4625777006149292
1684592012859807200,9.25180712890625,0.3113885521888733,-0.27229318022727966,-0.8400924205780029
1684592012876679700,9.2686796875,0.6203336715698242,-0.00015271631127689034,-1.0836749076843262
1684592012893553200,9.28555322265625,0.9750936627388,0.3023782968521118,-1.206153392791748
1684592012910434600,9.3024345703125,1.1699596643447876,0.3149010241031647,-1.1012372970581055
1684592012927300000,9.319300048828126,1.0170906782150269,-0.1540907621383667,-0.7431175708770752
1684592012944172300,9.33617236328125,0.5772676467895508,-0.48976120352745056,-0.39446622133255005
1684592012961046300,9.35304638671875,0.06475171446800232,-0.17791450023651123,-0.33826664090156555
1684592012977918500,9.36991845703125,-0.36300668120384216,1.1899654865264893,-0.7800748944282532
1684592012994792700,9.386792724609375,-0.6201809644699097,2.752864122390747,-1.5745052099227905
1684592013011665000,9.403664794921875,-0.6346889734268188,2.951242685317993,-1.9935587644577026
1684592013028539100,9.4205390625,-0.4740314185619354,2.1175644397735596,-2.012342929840088
1684592013045411000,9.4374111328125,-0.23380866646766663,1.29549241065979,-1.882992148399353
1684592013062288000,9.454287841796875,-0.005803219974040985,0.9618073105812073,-1.7310394048690796
1684592013079155500,9.471155517578126,0.14737124741077423,0.9685268402099609,-1.5282320976257324
1684592013096031700,9.48803173828125,0.10613783448934555,0.9943358898162842,-1.252121090888977
1684592013112904000,9.504904052734375,0.028557950630784035,0.8741481900215149,-0.9224064946174622
1684592013129778200,9.521778076171875,0.013133603148162365,0.24694228172302246,-0.3527746796607971
1684592013146650600,9.538650634765625,0.11224649101495743,-0.4259257912635803,0.15806138515472412
1684592013163524000,9.555524169921876,0.29306259751319885,0.19654589891433716,-0.13515393435955048
1684592013180396800,9.572396728515624,0.4251621961593628,1.2105822563171387,-0.7035640478134155
1684592013197271000,9.58927099609375,0.40133845806121826,1.5601497888565063,-0.8727737069129944
1684592013214143200,9.606143310546875,0.25366178154945374,1.4106405973434448,-0.6757696866989136
1684592013231017000,9.623016845703125,0.12171489745378494,1.1088731288909912,-0.308792382478714
1684592013247889400,9.639889404296875,0.04764748737215996,0.9024006724357605,0.01191187184303999
1684592013264763400,9.656763427734376,-0.02168571576476097,0.9462302923202515,0.14706580340862274
1684592013281636000,9.673635986328126,-0.13775011897087097,1.164156436920166,0.10506882518529892
1684592013298509800,9.690509765625,-0.2509129047393799,1.3813190460205078,-0.004428773187100887
1684592013315395300,9.707395263671875,-0.3139847218990326,1.3822352886199951,-0.010537425056099892
1684592013332256500,9.724256591796875,-0.2678644061088562,1.1551461219787598,0.10002918541431427
1684592013349129000,9.74112890625,-0.09697485715150833,0.9007207751274109,0.17821992933750153
1684592013366001200,9.758001220703125,0.0012217304902151227,0.7528914213180542,0.15821409225463867
1684592013382876000,9.7748759765625,-0.019853120669722557,0.7171558141708374,0.15042556822299957
1684592013399749400,9.791749267578124,-0.031612277030944824,0.7669413089752197,0.22357667982578278
1684592013416621800,9.808621826171875,-0.007635815534740686,0.7652614116668701,0.3449861407279968
1684592013433495300,9.825495361328125,0.03588833287358284,0.6582072973251343,0.4763221740722656
1684592013450357000,9.84235693359375,0.10766500234603882,0.4717406928539276,0.5700899958610535
1684592013467242000,9.859241943359375,0.20830504596233368,0.2684752643108368,0.5984952449798584
1684592013484114200,9.8761142578125,0.2993239760398865,0.062460970133543015,0.5862779021263123
1684592013500988000,9.89298779296875,0.36529740691185,-0.1134682223200798,0.5655084848403931
1684592013517860600,9.909860595703124,0.38988474011421204,-0.24083362519741058,0.5441282391548157
1684592013534734800,9.92673486328125,0.34513887763023376,-0.2506074607372284,0.5525276064872742
1684592013551607000,9.94360693359375,0.2324342280626297,-0.0027488935738801956,0.5887213945388794
1684592013568480800,9.960480712890625,0.17608191072940826,0.4885394871234894,0.589790403842926
1684592013585353200,9.977353271484375,0.22571471333503723,0.826500654220581,0.5285511612892151
1684592013602227000,9.99422705078125,0.2542726695537567,0.8347473740577698,0.44425174593925476
1684592013619100000,10.011099853515624,0.2874121069908142,0.6632469296455383,0.4011857509613037
1684592013635973600,10.0279736328125,0.3530801236629486,0.5384777188301086,0.4784601926803589
1684592013652845800,10.044845703125,0.375529408454895,0.5056437253952026,0.6672175526618958
1684592013669720300,10.06172021484375,0.2431243658065796,0.20616702735424042,0.8749117255210876
1684592013686592500,10.078592529296875,0.02825251780450344,-0.375071257352829,1.031293272972107
1684592013703466000,10.095466064453126,0.00015271631127689034,-0.8494081497192383,1.063821792602539
1684592013720339000,10.1123388671875,0.22281309962272644,-0.8895725011825562,0.9213374853134155
1684592013737213000,10.129212890625,0.3988949954509735,-0.34987306594848633,0.6960809230804443
1684592013754082300,10.146082275390626,0.3640756905078888,1.1882855892181396,0.3344487249851227
1684592013770962000,10.1629619140625,0.2719877362251282,2.034486770629883,0.07635815441608429
1684592013787831600,10.17983154296875,0.20616702735424042,1.0716103315353394,0.17791450023651123
1684592013804705800,10.196705810546876,0.2070833146572113,-0.44180828332901,0.2866485118865967
1684592013821578200,10.213578125,0.2750420868396759,-1.0891727209091187,0.04612032696604729
1684592013838452000,10.230451904296874,0.35903605818748474,-1.0612256526947021,-0.2116648107767105
1684592013855324200,10.24732421875,0.37598755955696106,-0.8923214077949524,-0.2799290120601654
1684592013872198400,10.264198486328125,0.29856038093566895,-0.884227454662323,-0.17012597620487213
1684592013889070800,10.28107080078125,0.19562959671020508,-0.9321803450584412,0.07864890247583389
1684592013905944600,10.297944580078125,0.14049901068210602,-0.8753699064254761,0.34636059403419495
1684592013922817000,10.314817138671875,0.0757472887635231,-0.7478517889976501,0.5580254197120667
1684592013939691300,10.331691162109376,-0.007635815534740686,-0.6427829265594482,0.7344127297401428
1684592013956555800,10.3485556640625,-0.01878410577774048,-0.6721044778823853,0.9934195876121521
1684592013973437200,10.365437255859375,0.03848451003432274,-0.9508117437362671,1.33168625831604
1684592013990305300,10.38230517578125,0.09758572280406952,-1.2293663024902344,1.4833335876464844
1684592014007184100,10.39918408203125,0.06750060617923737,-1.335809588432312,1.4088079929351807
1684592014024056300,10.416056396484375,0.013439035043120384,-1.201724648475647,1.0870347023010254
1684592014040930000,10.432929931640626,0.06887505948543549,-0.6440047025680542,0.27320948243141174
1684592014057802000,10.449802001953126,0.18936823308467865,-0.2779437005519867,-0.5360342264175415
1684592014074676700,10.4666767578125,0.30344730615615845,-0.5603161454200745,-0.8121453523635864
1684592014091549000,10.483548828125,0.36942076683044434,-1.1844676733016968,-0.727082371711731
1684592014108422700,10.500422607421875,0.3793473243713379,-1.5958853960037231,-0.6585127115249634
1684592014125295000,10.517295166015625,0.36392298340797424,-1.6969836950302124,-0.6757696866989136
1684592014142169300,10.53416943359375,0.34926220774650574,-1.6487252712249756,-0.6733261942863464
1684592014159042000,10.5510419921875,0.3065016269683838,-1.5943583250045776,-0.5665774941444397
1684592014175915500,10.56791552734375,0.20494529604911804,-1.6047430038452148,-0.33246341347694397
1684592014192787700,10.58478759765625,0.08414668589830399,-1.5696182250976562,-0.06261368840932846
1684592014209662200,10.601662109375,-0.007635815534740686,-1.3410019874572754,0.10797043144702911
1684592014226531800,10.61853173828125,-0.07040221989154816,-1.0065531730651855,0.20754146575927734
1684592014243411000,10.635410888671874,-0.14324790239334106,-0.720820963382721,0.346818745136261
1684592014260280600,10.652280517578125,-0.24862214922904968,-0.5768095254898071,0.5361869931221008
1684592014277154800,10.66915478515625,-0.2970332205295563,-0.5169447064399719,0.6940956115722656
1684592014294016800,10.686016845703126,-0.2997821271419525,-0.44196099042892456,0.7124215960502625
1684592014310901000,10.70290087890625,-0.304669052362442,-0.38240164518356323,0.6201809644699097
1684592014327773400,10.7197734375,-0.30573806166648865,-0.41141775250434875,0.4996877610683441
1684592014344647700,10.736647705078125,-0.2938261926174164,-0.5291619896888733,0.3927863538265228
1684592014361520000,10.75352001953125,-0.24205535650253296,-0.6571382880210876,0.28985556960105896
1684592014378393900,10.770393798828126,-0.1598939746618271,-0.6814202070236206,0.14065171778202057
1684592014395265800,10.787265869140626,-0.11178833991289139,-0.6067419052124023,-0.055283304303884506
1684592014412140300,10.804140380859375,-0.12446379661560059,-0.5111414790153503,-0.2353358417749405
1684592014429012700,10.8210126953125,-0.13026700913906097,-0.43875396251678467,-0.3597996234893799
1684592014445881900,10.8378818359375,-0.12492194026708603,-0.39385536313056946,-0.4358523488044739
1684592014462763500,10.854763427734374,-0.10613783448934555,-0.33078351616859436,-0.4665483236312866
1684592014479633200,10.871633056640626,-0.06811147183179855,-0.2577851414680481,-0.4558582007884979
1684592014496505600,10.888505615234376,-0.0503963828086853,-0.22250767052173615,-0.4199698567390442
1684592014513379300,10.90537939453125,-0.06704246252775192,-0.3065016269683838,-0.34544429183006287
1684592014530261200,10.92226123046875,-0.10720685124397278,-0.43737950921058655,-0.2402227520942688
1684592014547126000,10.9391259765625,-0.07147123664617538,-0.37522396445274353,-0.23518311977386475
1684592014563998500,10.95599853515625,0.018020525574684143,-0.154396191239357,-0.33307427167892456
1684592014580872200,10.9728720703125,0.1814269721508026,0.10186178237199783,-0.3579670190811157
1684592014597744400,10.989744384765626,0.40851613879203796,0.37598755955696106,-0.327729195356369
1684592014614618600,11.00661865234375,0.503047525882721,0.43249258399009705,-0.19562959671020508
1684592014631491000,11.023490966796874,0.23900102078914642,0.15729780495166779,0.07742717117071152
1684592014648353800,11.040353759765624,0.02580905705690384,0.7577783465385437,-0.10613783448934555
1684592014665237000,11.057237060546875,-0.2477058619260788,2.537992477416992,-1.0523680448532104
1684592014682111500,11.074111572265625,-0.6185010671615601,3.5914294719696045,-1.9514089822769165
1684592014698984000,11.09098388671875,-0.7722864151000977,2.951090097427368,-2.2479841709136963
1684592014715857400,11.107857421875,-0.7111998796463013,1.5170838832855225,-2.244624376296997
1684592014732729900,11.124729736328124,-0.4815145432949066,0.4008803069591522,-2.249816656112671
1684592014749603800,11.141603759765625,-0.08338310569524765,-0.1264491081237793,-2.233476161956787
1684592014766476500,11.1584765625,0.34834590554237366,-0.34025195240974426,-2.102445363998413
1684592014783350000,11.17535009765625,0.5115996599197388,-0.6346889734268188,-1.9065104722976685
1684592014800222500,11.192222412109375,0.3649919927120209,-1.0144944190979004,-1.6730071306228638
1684592014817097000,11.209096923828126,0.11026117950677872,-1.1508700847625732,-1.1945469379425049
1684592014833969200,11.22596923828125,-0.15057829022407532,-0.3266601860523224,-0.17928895354270935
1684592014850843000,11.2428427734375,-0.11102475970983505,1.4330898523330688,0.12522737681865692
1684592014867715600,11.259715576171875,-0.02871066704392433,2.408946990966797,-0.1264491081237793
1684592014884588000,11.276588134765625,-0.0734565481543541,2.3148739337921143,-0.3608686327934265
1684592014901463300,11.29346337890625,-0.1088867336511612,1.8657351732254028,-0.37171149253845215
1684592014918335700,11.310335693359375,-0.06918048858642578,1.4185818433761597,-0.14523321390151978
1684592014935208200,11.327208251953126,-0.029626963660120964,0.9251554012298584,0.1563815027475357
1684592014952082200,11.344082275390624,-0.06520986557006836,0.5073235630989075,0.32879820466041565
1684592014968955000,11.360954833984374,-0.14905111491680145,0.4964807331562042,0.31749722361564636
1684592014985825300,11.3778251953125,-0.21212296187877655,0.82207190990448,0.2177734673023224
1684592015002704100,11.3947041015625,-0.12202033400535583,1.1061242818832397,0.14737124741077423
1684592015019575300,11.4115751953125,0.023365596309304237,1.021519422531128,0.11667526513338089
1684592015036447500,11.428447509765626,0.10949759185314178,0.6792821288108826,0.12797626852989197
1684592015053321200,11.4453212890625,0.1485929638147354,0.39446622133255005,0.18555031716823578
1684592015070193400,11.462193359375,0.1560760736465454,0.3147483170032501,0.2710714638233185
1684592015087067400,11.4790673828125,0.16249015927314758,0.33505958318710327,0.4079052805900574
1684592015103940000,11.495940185546875,0.17562375962734222,0.26862800121307373,0.5693264007568359
1684592015120814000,11.51281396484375,0.18448130786418915,0.096211276948452,0.6478226184844971
1684592015137683700,11.52968359375,0.20601430535316467,-0.04245513305068016,0.6023131608963013
1684592015154563000,11.54656298828125,0.23655757308006287,-0.07757988572120667,0.5274821519851685
1684592015171433000,11.563432861328126,0.23350323736667633,-0.005650503560900688,0.5062545537948608
1684592015188306400,11.580306396484374,0.14706580340862274,0.17150041460990906,0.5348125100135803
1684592015205179000,11.597178955078125,0.07971791177988052,0.4599815309047699,0.5056437253952026
1684592015222053400,11.614053466796875,0.06185010448098183,0.6586654782295227,0.38835757970809937
1684592015238925800,11.63092578125,0.08170322328805923,0.6336199641227722,0.2571742534637451
1684592015255799600,11.647799560546876,0.15286903083324432,0.40515637397766113,0.2165517359972
1684592015272671700,11.664671630859376,0.2223549485206604,0.10293079167604446,0.2819143235683441
1684592015289546000,11.6815458984375,0.2405281960964203,-0.11484266817569733,0.3770565688610077
1684592015306418200,11.698418212890624,0.21303924918174744,-0.12232576310634613,0.4499022662639618
1684592015323292200,11.715292236328125,0.16035212576389313,0.032681290060281754,0.5224425196647644
1684592015340153900,11.73215380859375,0.0529925599694252,0.0682641938328743,0.6172793507575989
1684592015357038800,11.749038818359375,-0.08048149943351746,-0.17547103762626648,0.6443101167678833
1684592015373911000,11.7659111328125,-0.0607810914516449,-0.6598871946334839,0.6604980230331421
1684592015390784800,11.78278466796875,0.1618792861700058,-1.1858421564102173,0.694553792476654
1684592015407657000,11.799656982421874,0.38606682419776917,-1.483486294746399,0.6378960609436035
1684592015424531500,11.816531494140625,0.4970915913581848,-1.5722143650054932,0.6572909951210022
1684592015441403400,11.8334033203125,0.49953505396842957,-0.43905940651893616,0.9152288436889648
1684592015458277600,11.850277587890625,0.3819434940814972,1.9591975212097168,0.6779077053070068
1684592015475150000,11.867150146484375,0.1817324161529541,1.998903751373291,0.2515237629413605
1684592015492024000,11.884024169921876,-0.0780380368232727,0.10491610318422318,-0.26481008529663086
1684592015508896500,11.900896484375,-0.29596421122550964,-1.649794340133667,-0.7576256394386292
1684592015525770200,11.917770263671875,-0.3888157308101654,-2.3246476650238037,-0.8994990587234497
1684592015542642400,11.934642333984375,-0.2577851414680481,-2.062891960144043,-0.6635523438453674
1684592015559517000,11.951516845703125,0.02367102913558483,-1.395521640777588,-0.3006984293460846
1684592015576376000,11.9683759765625,0.22159136831760406,-0.8251262307167053,0.0039706239476799965
1684592015593265700,11.985265625,0.22663100063800812,-0.3481931984424591,0.33505958318710327
1684592015610131200,12.002131103515625,0.036041051149368286,-0.11423180252313614,0.788016140460968
1684592015627009500,12.019009521484374,-0.16264286637306213,0.05696318298578262,0.9558513760566711
1684592015643882000,12.035882080078125,-0.31154128909111023,0.2252565622329712,0.8924741148948669
1684592015660755700,12.052755615234375,-0.39354994893074036,0.24663683772087097,0.8672759532928467
1684592015677628200,12.069628173828125,-0.44165557622909546,-0.014049900695681572,0.9850202202796936
1684592015694502400,12.08650244140625,-0.3246748745441437,-0.46990808844566345,1.1435397863388062
1684592015711374600,12.10337451171875,-0.022143865004181862,-0.8329147696495056,1.074817419052124
1684592015728248600,12.12024853515625,0.19654589891433716,-1.1742357015609741,0.7099781036376953
1684592015745120800,12.137120849609374,0.28557950258255005,-1.4474451541900635,0.16004669666290283
1684592015761995000,12.1539951171875,0.3349068760871887,-1.545030951499939,-0.31413745880126953
1684592015778856700,12.170856689453124,0.34177911281585693,-1.5276212692260742,-0.5816964507102966
1684592015795741200,12.1877412109375,0.308792382478714,-1.4770721197128296,-0.6568328738212585
1684592015812613600,12.204613525390625,0.2102903574705124,-1.4332425594329834,-0.6261368989944458
1684592015829487600,12.221487548828126,0.11163562536239624,-1.3141238689422607,-0.6151412725448608
1684592015846360000,12.238360107421874,0.0679587572813034,-1.1091785430908203,-0.6126978397369385
1684592015863233800,12.25523388671875,0.040164388716220856,-0.8984300494194031,-0.5190827250480652
1684592015880106000,12.27210595703125,-0.020005837082862854,-0.7716755270957947,-0.337044894695282
1684592015896980500,12.28898046875,-0.08720101416110992,-0.7319692969322205,-0.1788308024406433
1684592015913852700,12.305852783203125,-0.09712757170200348,-0.7205155491828918,-0.1443169116973877
1684592015930723800,12.322723876953125,-0.04642575979232788,-0.8028296232223511,-0.204487144947052
1684592015947601700,12.3396015625,0.043676864355802536,-0.9938777685165405,-0.22632557153701782
1684592015964473300,12.356473388671875,0.11468994617462158,-1.2374602556228638,-0.08277224004268646
1684592015981345800,12.373345703125,0.09040805697441101,-1.4711161851882935,0.17256943881511688
1684592015998219300,12.39021923828125,-0.012522737495601177,-1.4705053567886353,0.32910364866256714
1684592016015091700,12.407091796875,-0.014355333521962166,-1.098488450050354,0.26313021779060364
1684592016031965700,12.423965576171875,0.1267545372247696,-0.5392413139343262,-0.14996741712093353
1684592016048838400,12.44083837890625,0.15592335164546967,-0.42378777265548706,-0.5820018649101257
1684592016065711900,12.4577119140625,0.11988230794668198,-0.6885978579521179,-0.5132794976234436
1684592016082584600,12.47458447265625,0.1368338167667389,-0.5926920175552368,-0.265573650598526
1684592016099458600,12.49145849609375,0.1699732542037964,-0.2808452844619751,-0.13057245314121246
1684592016116331000,12.5083310546875,0.16203200817108154,0.012980886735022068,-0.02076941914856434
1684592016133194000,12.525194091796875,0.16722436249256134,0.17608191072940826,0.13347405195236206
1684592016150067000,12.54206689453125,0.1693623960018158,0.16890424489974976,0.2886338233947754
1684592016166951200,12.558951171875,0.12003502249717712,-0.06154467165470123,0.4155410826206207
1684592016183823600,12.57582373046875,0.041233405470848083,-0.33337971568107605,0.49128836393356323
1684592016200697600,12.592697509765625,-0.019853120669722557,-0.2687807083129883,0.5100724697113037
1684592016217569800,12.60956982421875,-0.12400564551353455,0.15271630883216858,0.4262312352657318
1684592016234443500,12.626443603515625,-0.2590068578720093,0.5899431109428406,0.2474004179239273
1684592016251316500,12.64331640625,-0.3338378667831421,0.6777549982070923,0.12400564551353455
1684592016268188400,12.6601884765625,-0.30344730615615845,0.4447098970413208,0.12202033400535583
1684592016285064200,12.677064208984374,-0.19165897369384766,0.154396191239357,0.16523905098438263
1684592016301937000,12.69393701171875,-0.0933096632361412,-0.002138028386980295,0.10995574295520782
1684592016318809000,12.71080908203125,-0.020005837082862854,0.00427605677396059,-0.060933809727430344
1684592016335682800,12.727682861328125,0.02626720629632473,0.0529925599694252,-0.2382374405860901
1684592016352555300,12.74455517578125,0.05711590126156807,0.0503963828086853,-0.31383201479911804
1684592016369429200,12.76142919921875,0.08307767659425735,0.007635815534740686,-0.294895201921463
1684592016386302000,12.778302001953126,0.09651670604944229,-0.0074830991216003895,-0.21594086289405823
1684592016403175400,12.795175537109374,0.08414668589830399,0.037110064178705215,-0.11575896292924881
1684592016420048000,12.8120478515625,0.05451972410082817,0.1333213448524475,-0.00045814894838258624
1684592016436922000,12.828922119140625,-0.0013744467869400978,0.27351492643356323,0.13973543047904968
1684592016453794600,12.845794677734375,-0.04764748737215996,0.4283692538738251,0.31902438402175903
1684592016470659300,12.862659423828125,-0.09865473955869675,0.5157229900360107,0.5357288122177124
1684592016487540700,12.879540771484375,-0.14278975129127502,0.5166392922401428,0.7742717266082764
1684592016504424200,12.896424072265624,-0.19792033731937408,0.5349652171134949,0.925308108329773
1684592016521285400,12.913285400390626,-0.2646573781967163,0.7111998796463013,0.8633053302764893
1684592016538161000,12.930160888671875,-0.29336804151535034,0.9834930300712585,0.5488623976707458
1684592016555033300,12.947033447265625,-0.24572055041790009,1.023046612739563,0.18906278908252716
1684592016571907300,12.9639072265625,-0.17058411240577698,0.7240280508995056,-0.02580905705690384
1684592016588780000,12.980780029296875,-0.08597928285598755,0.41599923372268677,-0.09468411654233932
1684592016605653800,12.99765380859375,-0.00931569468230009,0.31459560990333557,-0.10476338863372803
1684592016622526200,13.014526123046876,0.017867809161543846,0.34574973583221436,-0.09376781433820724
1684592016639400400,13.031400390625,-0.007788531947880983,0.4283692538738251,-0.04948008432984352
1684592016656272600,13.048272705078125,-0.05971207842230797,0.5175555944442749,0.02122756652534008
1684592016673146000,13.06514599609375,-0.13179416954517365,0.5769622325897217,0.08246681094169617
1684592016690018800,13.082018798828125,-0.19944749772548676,0.6039929986000061,0.10354165732860565
1684592016706893000,13.09889306640625,-0.23151792585849762,0.6056728959083557,0.10201449692249298
1684592016723765200,13.11576513671875,-0.2577851414680481,0.5904012322425842,0.10797043144702911
1684592016740639000,13.132638916015624,-0.2736676335334778,0.5835290551185608,0.1339322030544281
1684592016757511400,13.149511474609374,-0.2733621895313263,0.5842925906181335,0.18768835067749023
1684592016774385700,13.1663857421875,-0.2675589919090271,0.6070473194122314,0.2664899528026581
1684592016791257900,13.1832578125,-0.2724458873271942,0.6669121384620667,0.34834590554237366
1684592016808131600,13.200131591796875,-0.3055853247642517,0.7535023093223572,0.4329507350921631
1684592016824999700,13.216999755859375,-0.37339138984680176,0.8235990405082703,0.5199990272521973
1684592016841878300,13.233878173828124,-0.46105054020881653,0.9718865752220154,0.5479460954666138
1684592016858750700,13.250750732421874,-0.5464189648628235,1.1722503900527954,0.4453207552433014
1684592016875624400,13.26762451171875,-0.6027712821960449,1.2173017263412476,0.2638937830924988
1684592016892496600,13.28449658203125,-0.6210972666740417,1.0441213846206665,0.10751228034496307
1684592016909371000,13.301370849609375,-0.5474879741668701,0.812298059463501,0.009468411095440388
1684592016926240300,13.318240234375,-0.38209620118141174,0.6829473376274109,-0.05711590126156807
1684592016943120000,13.335119873046875,-0.14569136500358582,0.7376197576522827,-0.13057245314121246
1684592016959989500,13.351989501953126,0.14324790239334106,0.7819074988365173,-0.24388794600963593
1684592016976863700,13.36886376953125,0.47280970215797424,0.775340735912323,-0.3484986126422882
1684592016993736000,13.38573583984375,0.6070473194122314,0.7244861721992493,-0.45265114307403564
1684592017010609700,13.402609619140625,0.4709770977497101,0.7334964275360107,-0.6320928335189819
1684592017027482000,13.419482177734375,0.14309518039226532,0.9260717034339905,-0.8736900091171265
1684592017044356400,13.4363564453125,-0.1814269721508026,1.1678216457366943,-0.9631817936897278
1684592017061228800,13.453228759765626,-0.3804163336753845,1.3405437469482422,-0.7945829629898071
1684592017078102500,13.4701025390625,-0.49953505396842957,1.5575536489486694,-0.5917757153511047
1684592017094975000,13.48697509765625,-0.6133087277412415,1.9703458547592163,-0.6698137521743774
1684592017111848700,13.5038486328125,-0.7130324840545654,2.1421515941619873,-1.0989465713500977
1684592017128721400,13.520721435546875,-0.6414085030555725,2.007303237915039,-1.5390750169754028
1684592017145595100,13.53759521484375,-0.3219259977340698,1.831526756286621,-1.673465371131897
1684592017162451000,13.554450927734376,-0.0507018156349659,1.5502232313156128,-1.5864170789718628
1684592017179341600,13.571341552734374,0.03787364438176155,1.0086911916732788,-1.383457064628601
1684592017196214000,13.588214111328124,0.17592918872833252,0.47739118337631226,-1.125366449356079
1684592017213087700,13.605087646484375,0.42302417755126953,0.3790418803691864,-0.8561276197433472
1684592017229960200,13.621960205078125,0.6020076870918274,0.608421802520752,-0.6417139172554016
1684592017246834200,13.638834228515625,0.6763805150985718,0.964403510093689,-0.6195700764656067
1684592017263706400,13.655706298828125,0.7487680912017822,1.1574369668960571,-0.6546948552131653
1684592017280580600,13.67258056640625,0.8568912148475647,1.1285735368728638,-0.5206099152565002
1684592017297453000,13.689453125,0.9645562171936035,1.0630582571029663,-0.2616030275821686
1684592017314324200,13.70632421875,1.015868902206421,1.1432342529296875,0.01878410577774048
1684592017331202000,13.7232021484375,0.998153805732727,1.3889548778533936,0.2817615866661072
1684592017348073000,13.740072998046875,0.9370672702789307,1.7108808755874634,0.48059824109077454
1684592017364945200,13.756945068359375,0.8660541772842407,2.0835087299346924,0.5684100985527039
1684592017381820000,13.77381982421875,0.8046622276306152,2.3438899517059326,0.551305890083313
1684592017398692000,13.790692138671876,0.7588473558425903,2.3460280895233154,0.44516804814338684
1684592017415565800,13.80756591796875,0.7386888265609741,2.1678080558776855,0.32162055373191833
1684592017432438300,13.824438232421874,0.7105889916419983,1.9339994192123413,0.2756529450416565
1684592017449312500,13.8413125,0.7104362845420837,1.7085901498794556,0.3119994103908539
1684592017466182100,13.85818212890625,0.7099781036376953,1.5906931161880493,0.40714168548583984
1684592017483061000,13.87506103515625,0.6641632318496704,1.5531249046325684,0.5326744914054871
1684592017499931000,13.891930908203125,0.5476406812667847,1.4628695249557495,0.6244570016860962
1684592017516801800,13.9088017578125,0.3781255781650543,1.2773191928863525,0.6380487680435181
1684592017533677300,13.92567724609375,0.29733866453170776,1.1693488359451294,0.6626361012458801
1684592017550551000,13.942551025390625,0.3058907687664032,1.1094839572906494,0.7058547735214233
1684592017567423500,13.959423583984375,0.32268956303596497,1.03984534740448,0.6751587986946106
1684592017584297700,13.976297607421875,0.36224308609962463,0.960280179977417,0.5832235813140869
1684592017601170200,13.993170166015625,0.4118759036064148,0.836885392665863,0.46379944682121277
1684592017618043400,14.01004345703125,0.36911532282829285,0.7200574278831482,0.3433062732219696
1684592017634916000,14.026916015625,0.31749722361564636,0.879187822341919,0.30970868468284607
1684592017651790300,14.043790283203125,0.30741792917251587,1.0618364810943604,0.3608686327934265
1684592017668662800,14.060662841796875,0.30482175946235657,1.021824836730957,0.48655417561531067
1684592017685536300,14.077536376953125,0.11438451707363129,0.5500841736793518,0.6039929986000061
1684592017702408700,14.09440869140625,-0.2921462953090668,-0.27611109614372253,0.6870706677436829
1684592017719283200,14.111283203125,-0.5015203952789307,-0.7221954464912415,0.8208501935005188
1684592017736155400,14.1281552734375,-0.12919799983501434,-0.45142942667007446,0.9486737251281738
1684592017753028900,14.14502880859375,0.18906278908252716,0.28817567229270935,0.9669997096061707
1684592017769901600,14.161901611328124,0.23594669997692108,1.327257513999939,0.7527387142181396
1684592017786775600,14.178775634765625,0.11774427443742752,1.6052011251449585,0.5887213945388794
1684592017803648000,14.19564794921875,-0.02367102913558483,0.9085093140602112,0.6795876026153564
1684592017820521700,14.212521728515625,-0.08368854224681854,0.010995574295520782,0.7680103182792664
1684592017837394200,14.229394287109375,-0.11957687139511108,-0.3156646192073822,0.5820018649101257
1684592017854268200,14.24626806640625,-0.21502456068992615,-0.012675453908741474,0.2499966025352478
1684592017871140600,14.263140625,-0.3594942092895508,0.4999932050704956,-0.005650503560900688
1684592017888014300,14.280014404296875,-0.2649627923965454,0.8869763612747192,0.02733621932566166
1684592017904886800,14.29688671875,0.11438451707363129,0.8529205918312073,0.4824308156967163
1684592017921761000,14.313760986328125,0.3497203588485718,0.10231992602348328,1.3176363706588745
1684592017938633500,14.330633544921875,0.4596760869026184,-0.164170041680336,1.552055835723877
1684592017955506700,14.347506591796876,0.43508878350257874,-0.10170906037092209,1.4004086256027222
1684592017972379100,14.364379150390626,0.32589662075042725,-0.16111570596694946,1.247844934463501
1684592017989253600,14.381253662109375,0.29474249482154846,-0.6392704844474792,1.363909363746643
1684592018006125800,14.398125732421875,0.3095559775829315,-1.270447015762329,1.5105170011520386
1684592018022999600,14.41499951171875,0.2822197377681732,-1.6765196323394775,1.43751859664917
1684592018039872000,14.4318720703125,0.1941024363040924,-1.5694655179977417,0.9676105380058289
1684592018056746000,14.44874609375,0.0835358202457428,-0.9949467778205872,0.10797043144702911
1684592018073618400,14.465618408203126,0.0507018156349659,-0.5470298528671265,-0.4346306324005127
1684592018090481700,14.482481689453126,0.09560041129589081,-0.49953505396842957,-0.48258355259895325
1684592018107364600,14.499364501953124,0.1797471046447754,-0.6262896060943604,-0.32788193225860596
1684592018124238800,14.51623876953125,0.20555615425109863,-0.7617489695549011,-0.13805554807186127
1684592018141111300,14.533111328125,0.12018773704767227,-0.899040937423706,0.055283304303884506
1684592018157985000,14.549985107421875,-0.03222314268350601,-1.0306823253631592,0.24327708780765533
1684592018174857500,14.566857421875,-0.13408492505550385,-1.083064079284668,0.39064833521842957
1684592018191731500,14.5837314453125,-0.1918116807937622,-1.0364855527877808,0.47189339995384216
1684592018208593700,14.60059375,-0.24846944212913513,-0.930347740650177,0.48869219422340393
1684592018225477400,14.617477294921875,-0.2854267954826355,-0.8130616545677185,0.48090365529060364
1684592018242350000,14.63435009765625,-0.3384193480014801,-0.6953173875808716,0.42531493306159973
1684592018259224300,14.651224365234375,-0.2945897579193115,-0.5082398653030396,0.29626965522766113
1684592018276096500,14.668096435546875,-0.09453139454126358,-0.23900102078914642,0.14905111491680145
1684592018292970000,14.684969970703126,0.17470745742321014,-0.126143679022789,0.10216721147298813
1684592018309842200,14.70184228515625,0.3677408695220947,-0.37568211555480957,0.19486601650714874
1684592018326716700,14.718716552734374,0.4043927788734436,-0.6650795340538025,0.22647829353809357
1684592018343588900,14.7355888671875,0.3732386529445648,-0.6270532011985779,0.04199698567390442
1684592018360462800,14.752462890625,0.36163222789764404,-0.5833762884140015,-0.14737124741077423
1684592018377335000,14.7693349609375,0.30741792917251587,-0.9964739084243774,-0.10293079167604446
1684592018394209300,14.786209228515625,0.1612684279680252,-1.1050552129745483,-0.20173825323581696
1684592018411081700,14.803081787109376,0.0685696229338646,-0.04153883829712868,-0.9085093140602112
1684592018427955500,14.81995556640625,0.09437867999076843,1.7722728252410889,-1.9729419946670532
1684592018444825000,14.8368251953125,0.19486601650714874,3.079219102859497,-2.613434314727783
1684592018461704700,14.85370458984375,0.3978259861469269,3.428786516189575,-2.6786441802978516
1684592018478574600,14.87057470703125,0.5300782918930054,2.9691104888916016,-2.487290620803833
1684592018495448000,14.887447998046875,0.5082398653030396,2.222480535507202,-2.2936463356018066
1684592018512320300,14.9043203125,0.4086688458919525,1.616044044494629,-2.2324070930480957
1684592018529194500,14.921194580078126,0.3095559775829315,1.1317806243896484,-2.2565362453460693
1684592018546064400,14.938064453125,0.22907446324825287,0.6444628238677979,-2.1873557567596436
1684592018562943200,14.954943115234375,0.21960605680942535,0.3865249752998352,-1.9587393999099731
1684592018579813000,14.971813232421875,0.2768746614456177,0.35246923565864563,-1.497994303703308
1684592018596687400,14.988687255859375,0.32910364866256714,0.32849279046058655,-0.808174729347229
1684592018613559600,15.0055595703125,0.4424191415309906,1.0739010572433472,-0.5054910182952881
1684592018630423000,15.022423095703125,0.5328271985054016,1.993406057357788,-0.6039929986000061
1684592018647294700,15.039294677734375,0.4691445231437683,2.358397960662842,-0.6287330389022827
1684592018664179700,15.0561796875,0.3139847218990326,2.317164659500122,-0.4024074673652649
1684592018681052200,15.07305224609375,0.2041817009449005,2.1319196224212646,0.00855211354792118
1684592018697926000,15.08992578125,0.1459967941045761,1.8532124757766724,0.4489859640598297
1684592018714798300,15.10679833984375,0.1082758679986,1.4659239053726196,0.8037459254264832
1684592018731672300,15.12367236328125,0.11667526513338089,0.9955576062202454,0.9992228150367737
1684592018748544500,15.14054443359375,0.09789115190505981,0.3680463135242462,0.9714284539222717
1684592018765409000,15.157408935546876,-0.01863138936460018,-0.16508632898330688,0.8743008971214294
1684592018782291000,15.174291015625,-0.17928895354270935,-0.3523165285587311,0.8494081497192383
1684592018799163000,15.191162841796874,-0.23640485107898712,-0.016493361443281174,0.9060658812522888
1684592018816039700,15.208039794921875,-0.08857546001672745,0.6962336897850037,1.1757628917694092
1684592018832911000,15.2249111328125,0.04337143152952194,1.2060006856918335,1.4906638860702515
1684592018849783600,15.241783447265625,0.22937989234924316,1.536631464958191,1.1047497987747192
1684592018866657500,15.258657470703126,0.49984049797058105,1.4424055814743042,-0.00045814894838258624
1684592018883530000,15.275530029296876,0.44226643443107605,1.377501130104065,-0.5096143484115601
1684592018900403500,15.292403564453124,0.37110063433647156,1.7835737466812134,-0.34834590554237366
1684592018917276000,15.30927587890625,0.20265454053878784,1.6560556888580322,0.048716504126787186
1684592018934150100,15.326150146484375,-0.20173825323581696,0.34544429183006287,0.4011857509613037
1684592018951022600,15.343022705078125,-0.6812674403190613,-0.7089090943336487,0.5230533480644226
1684592018967896300,15.359896240234375,-0.9618073105812073,-0.08445212244987488,0.41370847821235657
1684592018984768500,15.3767685546875,-0.6855435371398926,2.4831671714782715,-0.07666359096765518
1684592019001642500,15.393642578125,-0.2968805134296417,2.3495404720306396,-0.5170974135398865
1684592019018515200,15.41051513671875,-0.12965615093708038,0.5729916095733643,-0.1540907621383667
1684592019035389000,15.427388916015625,0.1088867336511612,-0.017562376335263252,0.24190263450145721
1684592019052261400,15.444261474609375,0.308792382478714,-0.1485929638147354,0.4398229718208313
1684592019069135600,15.461135498046875,0.3972151279449463,-0.11591167747974396,0.48227810859680176
1684592019086005000,15.4780048828125,0.40591996908187866,-0.05604688450694084,0.4072943925857544
1684592019102883800,15.4948837890625,0.45204028487205505,-0.04902193695306778,0.3191770911216736
1684592019119754000,15.51175390625,0.5096143484115601,-0.7770205736160278,0.5674937963485718
1684592019136628200,15.528628173828125,0.4346306324005127,-2.8912250995635986,1.4804319143295288
1684592019153500200,15.545500244140625,0.5265658497810364,-3.9145772457122803,2.0141754150390625
1684592019170363400,15.56236328125,0.6635523438453674,-3.8589885234832764,2.1595613956451416
1684592019187246600,15.57924658203125,0.5584835410118103,-3.009885787963867,1.7599027156829834
1684592019204120600,15.59612060546875,0.25824329257011414,-0.37491855025291443,0.6464481353759766
1684592019220993000,15.612992919921876,0.07177666574716568,1.4717271327972412,0.1635591685771942
1684592019237866800,15.62986669921875,0.029016099870204926,2.088242769241333,0.3680463135242462
1684592019254739000,15.646739013671874,0.014355333521962166,1.7605136632919312,0.8587238192558289
1684592019271613000,15.663613037109375,-0.022907447069883347,1.1924089193344116,1.173624873161316
1684592019288486000,15.68048583984375,-0.05742133408784866,0.7446447610855103,1.2273809909820557
1684592019305359000,15.697359130859375,-0.053297992795705795,0.3787364661693573,1.192256212234497
1684592019322231600,15.7142314453125,-0.058337632566690445,-0.01725694350898266,1.1809552907943726
1684592019339105500,15.73110546875,-0.10201449692249298,-0.4170682430267334,1.2125675678253174
1684592019355978200,15.747978271484374,-0.16264286637306213,-0.7151705026626587,1.2583824396133423
1684592019372851700,15.764851806640625,-0.21624629199504852,-0.8970556259155273,1.3103059530258179
1684592019389724400,15.781724365234375,-0.2565633952617645,-0.9219483733177185,1.297935962677002
1684592019406598400,15.798598388671875,-0.33567044138908386,-0.5013676285743713,0.9517280459403992
1684592019423470800,15.815470947265625,-0.4531092941761017,0.2919935882091522,0.17440202832221985
1684592019440344000,15.832343994140626,-0.5175555944442749,0.7764097452163696,-0.5076290369033813
1684592019457216800,15.849216796875,-0.48487427830696106,0.7944302558898926,-0.7877107262611389
1684592019474090800,15.8660908203125,-0.2767219543457031,0.6246097087860107,-0.7874053120613098
1684592019490963200,15.882963134765625,-0.031001411378383636,0.25824329257011414,-0.5781839489936829
1684592019507837000,15.8998369140625,0.14905111491680145,-0.25854870676994324,-0.24862214922904968
1684592019524709400,15.91670947265625,0.2200642079114914,-0.4940372705459595,-0.016493361443281174
1684592019541583600,15.93358349609375,0.2557998299598694,-0.380721777677536,0.09987647086381912
1684592019558455800,15.950455810546876,0.2483167201280594,-0.40882155299186707,0.29825496673583984
1684592019575329500,15.96732958984375,0.11148291081190109,-0.7687739133834839,0.5700899958610535
1684592019592201700,15.98420166015625,-0.07788532227277756,-0.2557998299598694,-0.09498954564332962
1684592019609076200,16.001076171875,-0.08231408894062042,2.500576972961426,-2.0754146575927734
1684592019625948400,16.017948486328127,0.20097467303276062,4.361577987670898,-2.947730302810669
1684592019642822100,16.034822265625,0.4943426847457886,4.083939552307129,-2.6904032230377197
1684592019659694800,16.05169482421875,0.7840455174446106,2.989879846572876,-2.197587728500366
1684592019676568600,16.068568603515626,0.8112290501594543,2.2291998863220215,-2.01509165763855
1684592019693431600,16.085431640625,0.6663012504577637,1.8339701890945435,-2.063197374343872
1684592019710304500,16.102304443359376,0.5635231733322144,1.4260649681091309,-2.096489429473877
1684592019727187000,16.11918701171875,0.5867360830307007,1.0082330703735352,-1.974927306175232
1684592019744061200,16.136061279296875,0.6766859889030457,0.827111542224884,-1.6320792436599731
1684592019760933600,16.15293359375,0.7247915863990784,0.9750936627388,-1.1662944555282593
1684592019777807000,16.16980712890625,0.7240280508995056,1.2835805416107178,-0.6776022911071777
1684592019794679300,16.18667919921875,0.7032586336135864,1.2447906732559204,-0.18585574626922607
1684592019811553800,16.2035537109375,0.7559457421302795,0.05604688450694084,0.32879820466041565
1684592019828426200,16.22042626953125,1.062294602394104,-0.24877487123012543,0.26313021779060364
1684592019845299700,16.2372998046875,1.324508547782898,0.5619960427284241,-0.005650503560900688
1684592019862172200,16.254172119140627,1.3002266883850098,1.7466164827346802,0.08048149943351746
1684592019879046400,16.27104638671875,1.1020009517669678,2.8538095951080322,0.6032294034957886
1684592019895918800,16.2879189453125,0.8043568134307861,3.4321463108062744,1.207375168800354
1684592019912792300,16.304792236328126,0.4743368625640869,3.1952834129333496,1.5428929328918457
1684592019929664800,16.321664794921876,0.19822576642036438,2.3938281536102295,1.560760736465454
1684592019946539000,16.3385390625,-0.03497203439474106,1.3158037662506104,1.4103351831436157
1684592019963411200,16.3554111328125,-0.2831360399723053,0.2681698501110077,1.267698049545288
1684592019980285000,16.372284912109375,-0.48945578932762146,-0.41951170563697815,1.1969904899597168
1684592019997157400,16.389157470703125,-0.513126790523529,-0.39813143014907837,1.2438743114471436
1684592020014031400,16.40603125,-0.3055853247642517,0.826195240020752,1.3542882204055786
1684592020030903600,16.422903564453126,-0.14340060949325562,2.5638015270233154,1.2707524299621582
1684592020047777500,16.439777587890624,0.02168571576476097,3.291494607925415,0.7113525867462158
1684592020064649700,16.456649658203126,0.3877467215061188,2.5699100494384766,0.05910121276974678
1684592020081524000,16.47352392578125,0.7159340381622314,1.7353154420852661,-0.3799581825733185
1684592020098396400,16.490396484375,0.7834346890449524,1.4705053567886353,-0.3556762933731079
1684592020115270100,16.507270263671874,0.6991352438926697,1.6351335048675537,0.035582900047302246
1684592020132142000,16.52414208984375,0.603076696395874,1.6114624738693237,0.5158756971359253
1684592020149016300,16.541016357421874,0.4479169547557831,1.2250902652740479,0.685390830039978
1684592020165886500,16.557886474609376,0.13866640627384186,0.7061602473258972,0.5820018649101257
1684592020182762500,16.574762451171875,-0.1134682223200798,-0.08689557760953903,0.30711251497268677
1684592020199637800,16.5916376953125,0.16279558837413788,-0.9453139901161194,-0.3332269787788391
1684592020216509200,16.60850927734375,0.3675881624221802,0.15806138515472412,-1.0473284721374512
1684592020233381400,16.62538134765625,0.3478877544403076,1.384678840637207,-0.3930917978286743
1684592020250261500,16.642261474609374,0.13179416954517365,1.29549241065979,0.7657195925712585
1684592020267127600,16.65912744140625,0.11545353382825851,1.0705413818359375,1.4643967151641846
1684592020284001300,16.676001220703125,0.18005253374576569,1.2267701625823975,1.5937473773956299
1684592020300874000,16.6928740234375,0.12522737681865692,1.7634152173995972,1.3646728992462158
1684592020317747700,16.709747802734373,0.001832595793530345,2.319302558898926,1.0545061826705933
1684592020334620200,16.7266201171875,0.0328340083360672,2.465452194213867,0.9541715383529663
1684592020351494100,16.743494140625,0.06948592513799667,0.17409659922122955,2.046856641769409
1684592020368366800,16.760366943359376,0.432645320892334,-0.9045386910438538,2.2763893604278564
1684592020385239800,16.77723974609375,0.8625417351722717,0.021380282938480377,1.2046263217926025
1684592020402112500,16.794112548828124,0.8897252082824707,0.4518875777721405,0.33475416898727417
1684592020418986800,16.81098681640625,0.6786713004112244,0.14614951610565186,0.25182920694351196
1684592020435859000,16.82785888671875,0.5068654417991638,-0.02672535367310047,0.5401576161384583
1684592020452732700,16.844732666015624,0.46303585171699524,0.16325373947620392,0.8484918475151062
1684592020469604900,16.86160498046875,0.4639521539211273,0.39553526043891907,1.1427761316299438
1684592020486478800,16.878478759765624,0.4158465266227722,0.47800204157829285,1.4283556938171387
1684592020503351600,16.8953515625,0.23625212907791138,0.45326200127601624,1.5511395931243896
1684592020520225300,16.912225341796876,0.0003054326225537807,0.566730260848999,1.420719861984253
1684592020537097700,16.92909765625,-0.17241671681404114,0.7530441284179688,1.143081545829773
1684592020553971700,16.9459716796875,-0.197004035115242,0.7086036801338196,0.912327229976654
1684592020570844000,16.962843994140623,-0.16203200817108154,0.33047810196876526,0.7764097452163696
1684592020587718000,16.9797177734375,-0.04932736977934837,-0.09453139454126358,0.6443101167678833
1684592020604590000,16.996590087890624,0.11392636597156525,-0.4885394871234894,0.5213735103607178
1684592020621464300,17.01346435546875,0.1869247704744339,-0.793361246585846,0.4021020531654358
1684592020638336500,17.03033642578125,0.1417207419872284,-0.9399688839912415,0.3026837408542633
1684592020655210200,17.047210205078127,0.02886338345706463,-0.9312640428543091,0.25595253705978394
1684592020672082400,17.06408251953125,-0.10476338863372803,-0.7855727076530457,0.2591595947742462
1684592020688956700,17.080956787109375,-0.24205535650253296,-0.6076582074165344,0.3075706362724304
1684592020705825300,17.0978251953125,-0.41890084743499756,-0.47219884395599365,0.3197879493236542
1684592020722700000,17.114699951171875,-0.6276640295982361,-0.42088615894317627,0.2073887437582016
1684592020739575300,17.1315751953125,-0.6162103414535522,-0.37629300355911255,0.011759156361222267
1684592020756449300,17.14844921875,-0.3901901841163635,-0.2900082767009735,-0.19807305932044983
1684592020773321500,17.165321533203127,-0.07987063378095627,-0.34376442432403564,-0.30115658044815063
1684592020790195200,17.1821953125,0.1540907621383667,-0.6200281977653503,-0.303600013256073
1684592020807067400,17.1990673828125,0.23136521875858307,-0.8243626356124878,-0.3602577745914459
1684592020823941400,17.21594140625,0.18585574626922607,-0.7541131377220154,-0.47479501366615295
1684592020840814000,17.23281396484375,0.060475658625364304,-0.5044219493865967,-0.4069889783859253
1684592020857688000,17.24968798828125,-0.1420261710882187,-0.2649627923965454,0.08949175477027893
1684592020874562000,17.26656201171875,-0.027183502912521362,0.6411030888557434,0.47479501366615295
1684592020891432200,17.28343212890625,0.06490442901849747,2.1145100593566895,0.2692388594150543
1684592020908306400,17.300306396484373,0.07528914511203766,3.350137710571289,-0.28435778617858887
1684592020925180200,17.31718017578125,-0.01160643994808197,3.8507418632507324,-0.9433286786079407
1684592020942052600,17.334052490234374,-0.15745051205158234,3.6781723499298096,-1.6562083959579468
1684592020958926800,17.3509267578125,-0.17867808043956757,3.085327625274658,-2.2705860137939453
1684592020975799000,17.367799072265626,-0.12064588814973831,2.2200369834899902,-2.6387851238250732
1684592020992672800,17.3846728515625,-0.10033461451530457,1.1725558042526245,-2.727055072784424
1684592021009545200,17.401545166015627,-0.18249599635601044,0.07070764899253845,-2.6619980335235596
1684592021026419200,17.418419189453125,-0.20876319706439972,-0.7641924023628235,-2.5305092334747314
1684592021043291400,17.43529150390625,-0.052381694316864014,-1.144608736038208,-2.3066272735595703
1684592021060165000,17.4521650390625,0.23609942197799683,-1.0911580324172974,-1.8949040174484253
1684592021077047300,17.46904736328125,0.5363397002220154,-0.6183483600616455,-1.4233160018920898
1684592021093911600,17.48591162109375,0.6076582074165344,0.6905831694602966,-0.9250026941299438
1684592021110784000,17.502783935546876,0.43447789549827576,2.317470073699951,-0.58062744140625
1684592021127657500,17.519657470703127,0.152105450630188,2.9625437259674072,-0.389426589012146
1684592021144530000,17.536530029296873,-0.11468994617462158,2.5584564208984375,-0.2122756689786911
1684592021161404000,17.55340380859375,-0.2822197377681732,1.7438675165176392,-0.07254024595022202
1684592021178273800,17.570273681640625,-0.29504790902137756,1.0305296182632446,0.001832595793530345
1684592021195153000,17.58715283203125,-0.1996002197265625,0.5699372887611389,0.06505715101957321
1684592021212022300,17.604022216796874,-0.1212567538022995,0.26893341541290283,0.16340644657611847
1684592021228896800,17.620896728515625,-0.128434419631958,-0.058337632566690445,0.34697145223617554
1684592021245769000,17.63776904296875,-0.17699819803237915,-0.3471241891384125,0.5406157374382019
1684592021262642400,17.654642333984373,-0.2122756689786911,-0.42088615894317627,0.6794348955154419
1684592021279515000,17.671514892578124,-0.18646661937236786,-0.4285219609737396,0.8049677014350891
1684592021296389000,17.68838916015625,-0.1368338167667389,-0.6073527932167053,0.9230173826217651
1684592021313261300,17.70526123046875,-0.08735372871160507,-0.8148942589759827,1.0256427526474
1684592021330131000,17.722130859375,-0.014202617108821869,-0.9294314980506897,1.0873401165008545
1684592021347007700,17.7390078125,0.09300423413515091,-0.9610437750816345,1.124755620956421
1684592021363881500,17.755881591796875,0.18936823308467865,-0.9808968901634216,1.2165381908416748
1684592021380754000,17.77275390625,0.2246456891298294,-0.9821186065673828,1.3869695663452148
1684592021397627600,17.789627685546876,0.22892175614833832,-0.8100073337554932,1.4326317310333252
1684592021414499800,17.806499755859374,0.2857322096824646,-0.45723262429237366,1.1504119634628296
1684592021431374000,17.8233740234375,0.3698789179325104,-0.016951510682702065,0.5879577994346619
1684592021448246500,17.84024658203125,0.3142901659011841,0.25793784856796265,0.08659014850854874
1684592021465120000,17.8571201171875,0.18280142545700073,0.38606682419776917,-0.029016099870204926
1684592021481992400,17.873992431640627,0.08292495459318161,0.45066583156585693,0.1010981947183609
1684592021498866700,17.89086669921875,0.018325956538319588,0.370947927236557,0.28725937008857727
1684592021515738600,17.907738525390624,0.035582900047302246,0.1814269721508026,0.45784351229667664
1684592021532612600,17.924612548828126,0.01817324012517929,-0.11270463466644287,0.5028948187828064
1684592021549475000,17.94147509765625,0.01970040425658226,-0.33597588539123535,0.44745880365371704
1684592021566359000,17.958359130859375,0.08933904021978378,-0.4717406928539276,0.5004513263702393
1684592021583231200,17.975231201171876,0.24663683772087097,-0.5027421116828918,0.9347765445709229
1684592021600105200,17.992105224609375,0.23747386038303375,-0.3104722499847412,1.6238325834274292
1684592021616974800,18.008974853515625,0.02932153269648552,0.32009339332580566,1.8677204847335815
1684592021633854000,18.02585400390625,-0.23945917189121246,1.2498302459716797,1.3645201921463013
1684592021650723800,18.042723876953126,-0.40133845806121826,1.6742289066314697,0.6079636216163635
1684592021667597300,18.059597412109376,-0.3039054572582245,1.0731375217437744,0.23197607696056366
1684592021684469800,18.0764697265625,0.04688390716910362,-0.16814066469669342,0.13469578325748444
1684592021701344000,18.093343994140625,0.4046982228755951,-1.1743884086608887,-0.02825251780450344
1684592021718216400,18.110216552734375,0.5068654417991638,-1.58733332157135,-0.2243402600288391
1684592021735090000,18.12708984375,0.4427245855331421,-1.5642731189727783,-0.3269656300544739
1684592021751962000,18.143962158203124,0.3623957931995392,-1.3142765760421753,-0.2768746614456177
1684592021768836400,18.16083642578125,0.29397889971733093,-0.9572258591651917,-0.11331550031900406
1684592021785708800,18.177708740234376,0.19685132801532745,-0.5726861953735352,0.06658431142568588
1684592021802566400,18.19456640625,0.04230241850018501,-0.19532416760921478,0.16065755486488342
1684592021819454700,18.211454833984376,-0.07147123664617538,0.12018773704767227,0.1615738570690155
1684592021836329000,18.228328857421875,-0.07742717117071152,0.33169981837272644,0.14492778480052948
1684592021853201200,18.245201171875,-0.03878994286060333,0.3744603991508484,0.15027284622192383
1684592021870062000,18.26206201171875,0.006872233934700489,0.24572055041790009,0.19013181328773499
1684592021886952000,18.278951904296875,0.039706241339445114,-0.01863138936460018,0.25564709305763245
1684592021903821300,18.2958212890625,0.04245513305068016,-0.4054618179798126,0.31444287300109863
1684592021920693800,18.31269384765625,0.09285151958465576,-0.8168795704841614,0.36560285091400146
1684592021937567500,18.3295673828125,0.17989981174468994,-1.1423180103302002,0.4008803069591522
1684592021954427000,18.346427001953124,0.20693060755729675,-1.3645201921463013,0.4167627990245819
1684592021971316000,18.36331591796875,0.13377949595451355,-1.4136948585510254,0.36942076683044434
1684592021988186000,18.38018603515625,0.06261368840932846,-1.15178644657135,0.16050484776496887
1684592022005059600,18.3970595703125,0.07666359096765518,-0.6711881756782532,-0.21349740028381348
1684592022021932000,18.41393212890625,0.11224649101495743,-0.3507893681526184,-0.5001459121704102
1684592022038806300,18.43080615234375,0.13500121235847473,-0.31230485439300537,-0.5774203538894653
1684592022055678200,18.44767822265625,0.1612684279680252,-0.3790418803691864,-0.5674937963485718
1684592022072552200,18.46455224609375,0.20876319706439972,-0.4769330322742462,-0.5442809462547302
1684592022089424400,18.48142431640625,0.26511552929878235,-0.5682573914527893,-0.5009095072746277
1684592022106297600,18.498297607421875,0.28298333287239075,-0.6501133441925049,-0.4430300295352936
1684592022123171800,18.515171875,0.2718350291252136,-0.707840085029602,-0.38576140999794006
1684592022140044500,18.53204443359375,0.24755313992500305,-0.7102835774421692,-0.3452915847301483
1684592022156917000,18.5489169921875,0.22052235901355743,-0.6600399017333984,-0.3223841190338135
1684592022173791000,18.565791015625,0.20082195103168488,-0.5839871764183044,-0.28237244486808777
1684592022190663400,18.582663330078127,0.17562375962734222,-0.5218316316604614,-0.21135938167572021
1684592022207537000,18.599536865234374,0.15592335164546967,-0.4660901725292206,-0.13927727937698364
1684592022224409300,18.616409423828124,0.15164729952812195,-0.408363401889801,-0.06994406878948212
1684592022241283600,18.63328369140625,0.14324790239334106,-0.3819434940814972,0.0019853119738399982
1684592022258156000,18.650156005859376,0.10506882518529892,-0.35934147238731384,0.06475171446800232
1684592022275029500,18.667029541015626,0.030085112899541855,-0.327271044254303,0.12034045159816742
1684592022291901700,18.683901611328125,-0.009468411095440388,-0.251676470041275,0.17806722223758698
1684592022308775700,18.700775634765623,-0.013133603148162365,-0.16493362188339233,0.2177734673023224
1684592022325648400,18.7176484375,-0.028099801391363144,-0.08277224004268646,0.21533000469207764
1684592022342511400,18.734511474609373,-0.015271631069481373,-0.08491026610136032,0.21670444309711456
1684592022359394300,18.751394287109374,0.0029016099870204926,-0.11911872029304504,0.19333885610103607
1684592022376268500,18.7682685546875,0.028099801391363144,-0.12568552792072296,0.14278975129127502
1684592022393140700,18.785140625,0.031612277030944824,-0.0933096632361412,0.0754418596625328
1684592022410014500,18.802014404296877,0.003512475173920393,-0.06185010448098183,0.036193765699863434
1684592022426886700,18.81888671875,-0.02932153269648552,-0.01878410577774048,0.02382374368607998
1684592022443760600,18.8357607421875,-0.047800205647945404,0.010537425056099892,0.02321287989616394
1684592022460633300,18.85263330078125,-0.06536258012056351,0.015271631069481373,0.018020525574684143
1684592022477506800,18.8695068359375,-0.08506298810243607,-0.007024950347840786,0.013897184282541275
1684592022494379000,18.88637890625,-0.08200865983963013,-0.04230241850018501,0.031001411378383636
1684592022511253200,18.903253173828126,-0.04993823543190956,-0.07895433157682419,0.05742133408784866
1684592022528125700,18.920125732421877,-0.007788531947880983,-0.13087788224220276,0.06688974797725677
1684592022544999000,18.9369990234375,0.01970040425658226,-0.17348572611808777,0.04886921867728233
1684592022561871400,18.953871337890625,0.004734205547720194,-0.1992947906255722,0.013439035043120384
1684592022578745600,18.97074560546875,-0.029626963660120964,-0.20845776796340942,-0.010231993161141872
1684592022595607000,18.98760693359375,-0.025961773470044136,-0.16661348938941956,-0.02229658141732216
1684592022612491500,19.004491455078124,-0.027183502912521362,-0.11957687139511108,-0.03130684420466423
1684592022629364000,19.021364013671874,-0.03955352306365967,-0.11850785464048386,-0.029626963660120964
1684592022646235400,19.0382353515625,-0.022907447069883347,-0.1368338167667389,-0.02168571576476097
1684592022663111200,19.055111083984375,0.005192354787141085,-0.16401731967926025,-0.021991148591041565
1684592022679986000,19.07198583984375,0.02535090781748295,-0.2018909603357315,-0.022602014243602753
1684592022696856300,19.088856201171875,0.04306599870324135,-0.22388210892677307,-0.019394971430301666
1684592022713730300,19.105730224609374,0.05467243865132332,-0.1996002197265625,-0.026419922709465027
1684592022730602800,19.122602783203124,0.05161811411380768,-0.15241087973117828,-0.03451388701796532
1684592022747476500,19.1394765625,0.04703662544488907,-0.11163562536239624,-0.028405234217643738
1684592022764348700,19.1563486328125,0.04841107130050659,-0.09239336848258972,-0.007024950347840786
1684592022781223000,19.173222900390623,0.04963280260562897,-0.08429940044879913,0.007024950347840786
1684592022798095000,19.19009521484375,0.044745877385139465,-0.07727445662021637,0.004123340360820293
1684592022814968800,19.20696875,0.03344487398862839,-0.0780380368232727,0.0024434609804302454
1684592022831841000,19.223841064453126,0.017409659922122955,-0.07910704612731934,0.015271631069481373
1684592022848715300,19.24071533203125,0.007635815534740686,-0.06765332818031311,0.044135015457868576
1684592022865587500,19.25758740234375,0.009926560334861279,-0.021532999351620674,0.0656680166721344
1684592022882470700,19.274470703125,0.025045474991202354,0.029932396486401558,0.07024950534105301
1684592022899336400,19.29133642578125,0.03405573591589928,0.048716504126787186,0.05513058975338936
1684592022916206000,19.3082060546875,0.03191770985722542,0.0555887371301651,0.017867809161543846
1684592022933081600,19.32508154296875,0.029474247246980667,0.07681630551815033,-0.013286318629980087
1684592022949953500,19.34195361328125,0.017562376335263252,0.10461067408323288,-0.014508049935102463
1684592022966826000,19.358825927734376,0.009926560334861279,0.14676037430763245,0.0074830991216003895
1684592022983700000,19.375699951171875,0.004428773187100887,0.21334469318389893,0.031612277030944824
1684592023000572400,19.392572509765625,0.00733038317412138,0.28466320037841797,0.05360342562198639
1684592023017446100,19.409446044921875,0.02687807008624077,0.3130684494972229,0.08368854224681854
1684592023034318300,19.426318359375,0.058184914290905,0.26374107599258423,0.12278391420841217
1684592023051192300,19.4431923828125,0.08475755155086517,0.17821992933750153,0.13515393435955048
1684592023068065000,19.46006494140625,0.09911288321018219,0.09896016865968704,0.11545353382825851
1684592023084938200,19.476938232421876,0.08674286305904388,0.03481931984424591,0.08888089656829834
1684592023101810700,19.493810791015626,0.0682641938328743,0.010842857882380486,0.0734565481543541
1684592023118685000,19.510684814453125,0.06520986557006836,0.04505131021142006,0.06627888232469559
1684592023135557000,19.52755712890625,0.05757404863834381,0.09651670604944229,0.06765332818031311
1684592023152430600,19.5444306640625,0.03955352306365967,0.12186761945486069,0.06734789162874222
1684592023169303000,19.561302978515624,0.0328340083360672,0.11438451707363129,0.054825156927108765
1684592023186174500,19.578174560546874,0.031154127791523933,0.06811147183179855,0.0354301854968071
1684592023203052000,19.595052001953125,0.024129176512360573,-0.01191187184303999,0.02275473065674305
1684592023219923200,19.611923095703126,0.01924225501716137,-0.07925976812839508,0.02015855349600315
1684592023236795400,19.62879541015625,0.030543262138962746,-0.09560041129589081,0.020005837082862854
1684592023253669400,19.64566943359375,0.04841107130050659,-0.09682214260101318,0.024587325751781464
1684592023270541800,19.662541748046873,0.05421429127454758,-0.12202033400535583,0.037110064178705215
1684592023287415600,19.67941552734375,0.056810468435287476,-0.15164729952812195,0.04245513305068016
1684592023304288000,19.6962880859375,0.059406645596027374,-0.1618792861700058,0.035124752670526505
1684592023321162000,19.713161865234376,0.06963863968849182,-0.1615738570690155,0.02871066704392433
1684592023338034200,19.7300341796875,0.08200865983963013,-0.16722436249256134,0.024892758578062057
1684592023354907600,19.74690771484375,0.09208793938159943,-0.18555031716823578,0.01664607785642147
1684592023371780000,19.763780029296875,0.09972374886274338,-0.2177734673023224,0.0065668015740811825
1684592023388652500,19.780652587890625,0.10002918541431427,-0.23640485107898712,-0.015577063895761967
1684592023405526500,19.797526611328124,0.10277807712554932,-0.22128593921661377,-0.05207626149058342
1684592023422400300,19.814400146484374,0.10980302840471268,-0.18219055235385895,-0.08918632566928864
1684592023439272700,19.831272705078124,0.12034045159816742,-0.14416420459747314,-0.11636982858181
1684592023456146700,19.848146728515626,0.12782354652881622,-0.12400564551353455,-0.1333213448524475
1684592023473019100,19.86501904296875,0.11850785464048386,-0.128434419631958,-0.14752395451068878
1684592023489892600,19.881892578125,0.10155634582042694,-0.15454891324043274,-0.1488984078168869
1684592023506764800,19.898764892578125,0.08750644326210022,-0.19333885610103607,-0.12965615093708038
1684592023523639000,19.91563916015625,0.07880161702632904,-0.2292271852493286,-0.10201449692249298
1684592023540511500,19.932511474609374,0.058337632566690445,-0.25564709305763245,-0.07162395119667053
1684592023557385000,19.949385009765624,0.034666601568460464,-0.2840523421764374,-0.02825251780450344
1684592023574257200,19.966257080078126,0.01817324012517929,-0.32498031854629517,0.029932396486401558
1684592023591131400,19.98313134765625,0.03680463135242462,-0.3602577745914459,0.07391469180583954
1684592023608003600,20.000003662109375,0.05513058975338936,-0.389426589012146,0.08628471940755844
1684592023624877300,20.016877197265625,0.058337632566690445,-0.42867469787597656,0.078343465924263
1684592023641745700,20.03374560546875,0.07620543986558914,-0.4590652287006378,0.05100724846124649
1684592023658624000,20.0506240234375,0.09758572280406952,-0.4827362596988678,0.008246680721640587
1684592023675496200,20.06749609375,0.09789115190505981,-0.503963828086853,-0.03940080851316452
1684592023692369700,20.08436962890625,0.09407325088977814,-0.5290092825889587,-0.07559457421302795
1684592023709244200,20.101244140625,0.10735956579446793,-0.5331326723098755,-0.12217304855585098
1684592023726112000,20.118112060546874,0.11881329119205475,-0.5146539807319641,-0.1866193264722824
1684592023742990600,20.134990478515626,0.10919216275215149,-0.5117523670196533,-0.2539672255516052
1684592023759862300,20.1518623046875,0.09575312584638596,-0.5283984541893005,-0.30115658044815063
1684592023776734500,20.168734375,0.08674286305904388,-0.5102251768112183,-0.3614795207977295
1684592023793608700,20.185608642578124,0.06918048858642578,-0.4784601926803589,-0.4205807149410248
1684592023810470100,20.20247021484375,0.06383541971445084,-0.4801400899887085,-0.4544837474822998
1684592023827354400,20.219354248046876,0.058795779943466187,-0.49296826124191284,-0.46731191873550415
1684592023844226600,20.2362265625,0.06704246252775192,-0.5508477091789246,-0.4550946056842804
1684592023861100500,20.2531005859375,0.062460970133543015,-0.6269004344940186,-0.42119157314300537
1684592023877973200,20.26997314453125,0.05803219974040985,-0.6835582256317139,-0.3839288055896759
1684592023894846500,20.286846435546874,0.04841107130050659,-0.6957755088806152,-0.3546072840690613
1684592023911719000,20.303718994140624,0.04398229718208313,-0.6902777552604675,-0.3237585723400116
1684592023928593200,20.32059326171875,0.03481931984424591,-0.6850853562355042,-0.2742784917354584
1684592023945465300,20.33746533203125,0.009926560334861279,-0.6855435371398926,-0.21319197118282318
1684592023962336500,20.35433642578125,-0.03237585723400116,-0.6743952035903931,-0.1537853181362152
1684592023979214000,20.371214111328126,-0.0832303911447525,-0.6692028641700745,-0.0936150997877121
1684592023996085800,20.388085693359375,-0.1368338167667389,-0.6646214127540588,-0.030085112899541855
1684592024012957700,20.404957763671874,-0.18295414745807648,-0.645684540271759,0.03848451003432274
1684592024029831400,20.42183154296875,-0.1722639948129654,-0.6200281977653503,0.11056660860776901
1684592024046703600,20.43870361328125,-0.14676037430763245,-0.6178901791572571,0.182648703455925
1684592024063577900,20.455577880859376,-0.128434419631958,-0.6294966340065002,0.24266621470451355
1684592024080450300,20.4724501953125,-0.10995574295520782,-0.6415612101554871,0.26511552929878235
1684592024097323800,20.48932373046875,-0.06017022579908371,-0.6882924437522888,0.27718010544776917
1684592024114196000,20.506196044921875,-0.07467827945947647,-0.7531968355178833,0.26374107599258423
1684592024131070200,20.5230703125,-0.08139779418706894,-0.7959573864936829,0.2272418737411499
1684592024147942400,20.5399423828125,-0.10125091671943665,-0.7622070908546448,0.14355333149433136
1684592024164816000,20.55681591796875,-0.09972374886274338,-0.7070765495300293,0.05955936014652252
1684592024181688300,20.573688232421876,-0.10965031385421753,-0.6963863968849182,-0.0027488935738801956
1684592024198562600,20.5905625,-0.15485434234142303,-0.7447974681854248,-0.06261368840932846
1684592024215434800,20.607434814453125,-0.20631973445415497,-0.769690215587616,-0.14935655891895294
1684592024232308500,20.62430859375,-0.25442537665367126,-0.7619016766548157,-0.2506074607372284
1684592024249180700,20.6411806640625,-0.3039054572582245,-0.7203628420829773,-0.33108896017074585
1684592024266051800,20.6580517578125,-0.37369680404663086,-0.7150177955627441,-0.3376557528972626
1684592024282930200,20.67493017578125,-0.403781920671463,-0.7373143434524536,-0.27488934993743896
1684592024299800800,20.69180078125,-0.4024074673652649,-0.7524332404136658,-0.19028452038764954
1684592024316673000,20.708673095703126,-0.42730024456977844,-0.7535023093223572,-0.09712757170200348
1684592024333547000,20.725547119140625,-0.39156460762023926,-0.7586946487426758,-0.006261368747800589
1684592024350409000,20.742408935546877,-0.26282477378845215,-0.5653557777404785,-0.05100724846124649
1684592024367293000,20.75929296875,-0.05971207842230797,-0.2583959996700287,-0.17302757501602173
1684592024384165400,20.776165283203124,0.18280142545700073,-0.15683965384960175,-0.11316278576850891
1684592024401039400,20.793039306640626,0.34513887763023376,-0.060933809727430344,-0.01863138936460018
1684592024417911800,20.809911865234376,0.39416080713272095,0.04092797264456749,0.076052725315094
1684592024434785000,20.826784912109375,0.24434609711170197,0.6852380633354187,-0.23777928948402405
1684592024451657500,20.843657470703125,-0.21914790570735931,2.135279417037964,-1.5170838832855225
1684592024468531700,20.86053173828125,-0.5482515692710876,2.727360486984253,-2.599384307861328
1684592024485404000,20.87740380859375,-0.5287038683891296,2.099391222000122,-3.0361530780792236
1684592024502275000,20.894275146484375,-0.30863967537879944,0.8074111342430115,-3.051730155944824
1684592024519153000,20.91115283203125,-0.1976149082183838,-0.26603180170059204,-2.9349019527435303
1684592024536024000,20.928024169921876,-0.18555031716823578,-0.794277548789978,-2.9023735523223877
1684592024552896300,20.944896240234375,-0.21639901399612427,-0.7609853744506836,-2.8968756198883057
1684592024569770000,20.96177001953125,-0.18035796284675598,-0.05772676691412926,-2.780200481414795
