time,seconds_elapsed,z,y,x
1684592003722971100,0.11497119140625,4.923830986022949,3.348755359649658,-1.0133603811264038
1684592003739841500,0.131841552734375,6.098108291625977,4.1491546630859375,0.26141586899757385
1684592003756721200,0.14872119140625,8.47298526763916,4.201198577880859,1.277169108390808
1684592003773598000,0.165597900390625,7.770691394805908,3.3134610652923584,1.721037745475769
1684592003790458000,0.1824580078125,8.834898948669434,3.198007345199585,2.4681966304779053
1684592003807343900,0.19934375,13.664812088012695,1.252044439315796,4.24367094039917
1684592003824215300,0.21621533203125,11.972488403320312,0.2584248483181,-1.2813565731048584
1684592003841088300,0.233088134765625,5.73978328704834,2.4406790733337402,-3.8811583518981934
1684592003857961500,0.24996142578125,7.554739475250244,3.916452407836914,-2.026122570037842
1684592003874834400,0.26683447265625,8.678169250488281,5.613562107086182,-1.44945228099823
1684592003891708200,0.283708251953125,5.400002479553223,4.934598445892334,-2.9593234062194824
1684592003908581400,0.300581298828125,6.577869415283203,2.7314071655273438,-2.788834810256958
1684592003925454300,0.317454345703125,8.074580192565918,2.884547710418701,-2.7116663455963135
1684592003942327600,0.33432763671875,10.25743293762207,3.404388427734375,-3.135794162750244
1684592003959200500,0.351200439453125,9.227920532226562,2.1828525066375732,-4.573282241821289
1684592003976073700,0.36807373046875,8.49990463256836,1.643869161605835,-4.182055950164795
1684592003992928000,0.384927978515625,9.821938514709473,3.720839262008667,-2.968296527862549
1684592004009820400,0.4018203125,10.279565811157227,2.6177480220794678,-2.0691933631896973
1684592004026683000,0.418682861328125,10.618748664855957,1.2640085220336914,-2.0997018814086914
1684592004043567400,0.4355673828125,10.9573335647583,1.4105689525604248,-3.7405800819396973
1684592004060439000,0.45243896484375,11.462817192077637,2.516651153564453,-3.2512478828430176
1684592004077312500,0.4693125,9.32722282409668,3.339782238006592,-2.892324447631836
1684592004094186800,0.486186767578125,7.8041911125183105,2.5609183311462402,-3.071187973022461
1684592004111056600,0.503056640625,6.970292568206787,3.441477060317993,-2.352144718170166
1684592004127935200,0.519935302734375,6.217151641845703,3.331407308578491,-3.156731367111206
1684592004144806100,0.53680615234375,7.45364236831665,3.229114055633545,-4.094717979431152
1684592004161679000,0.55367919921875,8.617751121520996,3.188436269760132,-4.4961137771606445
1684592004178552300,0.57055224609375,8.0081787109375,2.888735055923462,-4.334000110626221
1684592004195425300,0.58742529296875,6.942774772644043,2.181057929992676,-4.818546772003174
1684592004212298500,0.604298583984375,6.298507213592529,2.3365912437438965,-5.044070243835449
1684592004229171700,0.621171630859375,5.574678421020508,2.0817556381225586,-5.2839508056640625
1684592004246044200,0.638044189453125,7.483552932739258,1.7641085386276245,-4.862215518951416
1684592004262919400,0.65491943359375,10.182656288146973,0.745364248752594,-4.23948335647583
1684592004279779800,0.67177978515625,14.324034690856934,1.566102385520935,-3.2650065422058105
1684592004296664600,0.68866455078125,13.95972728729248,3.150151014328003,-3.531208038330078
1684592004313537500,0.70553759765625,9.023932456970215,2.9892337322235107,-3.8117663860321045
1684592004330400500,0.722400390625,9.714262008666992,0.017946170642971992,-5.327021598815918
1684592004347273500,0.7392734375,10.30469036102295,-0.9523434042930603,-4.265804767608643
1684592004364157400,0.756157470703125,8.067999839782715,0.02632104977965355,-4.763511657714844
1684592004381030400,0.773030517578125,6.982854843139648,0.7088736891746521,-4.791627407073975
1684592004397901300,0.7899013671875,6.850052833557129,0.363709032535553,-4.366302967071533
1684592004414779600,0.806779541015625,7.24008321762085,-0.5659025311470032,-3.8835511207580566
1684592004431647500,0.8236474609375,6.798008918762207,-1.8705891370773315,-5.340181827545166
1684592004448525800,0.84052587890625,7.499105930328369,-1.716252088546753,-6.665805816650391
1684592004465396200,0.857396240234375,7.390232563018799,-0.7387840151786804,-7.363313674926758
1684592004482269400,0.87426953125,7.026523590087891,-0.5288137793540955,-6.68853759765625
1684592004499143000,0.891142822265625,6.531209468841553,-0.7100701332092285,-6.258427619934082
1684592004516016000,0.90801611328125,6.705287456512451,-1.241276741027832,-6.339783668518066
1684592004532889300,0.924889404296875,6.873981475830078,-1.6785650253295898,-7.532007694244385
1684592004549762600,0.941762451171875,7.039684295654297,-1.3728820085525513,-7.642077445983887
1684592004566632700,0.9586328125,7.437490940093994,-1.7126628160476685,-7.780860900878906
1684592004583511000,0.975510986328125,8.178069114685059,-2.0757737159729004,-7.067800045013428
1684592004600388600,0.992388671875,8.396414756774902,-1.9016958475112915,-6.3014984130859375
1684592004617255200,1.009255126953125,8.385048866271973,-1.4799607992172241,-6.502495765686035
1684592004634128400,1.02612841796875,8.257631301879883,-0.6197410821914673,-6.3529438972473145
1684592004651001600,1.043001708984375,7.917850017547607,-0.34576287865638733,-6.448657035827637
1684592004667861200,1.059861328125,7.882555961608887,-1.1198409795761108,-6.616752624511719
1684592004684747500,1.07674755859375,7.9040913581848145,-1.6366907358169556,-6.464210510253906
1684592004701610800,1.09361083984375,7.8424763679504395,-1.7132610082626343,-6.387639999389648
1684592004718494500,1.110494384765625,7.703692436218262,-1.7072789669036865,-6.675376892089844
1684592004735367400,1.127367431640625,7.347760200500488,-0.882951557636261,-6.9134626388549805
1684592004752238000,1.144238037109375,6.8997039794921875,-0.9810572862625122,-7.335197925567627
1684592004769116700,1.16111669921875,6.327221393585205,-1.9866410493850708,-7.762914657592773
1684592004785985500,1.177985595703125,6.323033809661865,-2.1296122074127197,-7.896913051605225
1684592004802861300,1.194861328125,6.7902326583862305,-2.103889226913452,-7.322037220001221
1684592004819733500,1.2117333984375,6.846463680267334,-1.9052850008010864,-6.714260101318359
1684592004836606700,1.228606689453125,7.118647575378418,-2.0931215286254883,-6.441478729248047
1684592004853480000,1.24547998046875,7.444669246673584,-2.379662036895752,-6.857829570770264
1684592004870342400,1.26234228515625,7.070192813873291,-1.789831280708313,-7.24008321762085
1684592004887226400,1.279226318359375,6.415755748748779,-1.4901303052902222,-7.718647480010986
1684592004904099300,1.296099365234375,6.27996301651001,-1.0498509407043457,-7.699504852294922
1684592004920973600,1.3129736328125,6.581458568572998,-1.2335001230239868,-7.331010341644287
1684592004937845800,1.329845703125,7.475177764892578,-1.6372889280319214,-7.383652687072754
1684592004954714600,1.346714599609375,7.761120319366455,-1.6630117893218994,-7.206583499908447
1684592004971592200,1.36359228515625,7.755736351013184,-1.5068800449371338,-6.579065799713135
1684592004988460300,1.380460205078125,7.83111047744751,-1.3884353637695312,-6.244070529937744
1684592005005337900,1.397337890625,8.091927528381348,-0.9355936646461487,-5.999404430389404
1684592005022212600,1.414212646484375,7.995018482208252,-0.6879364848136902,-5.697310924530029
1684592005039084500,1.43108447265625,7.574480056762695,-0.4289134442806244,-5.44845724105835
1684592005055947500,1.447947509765625,7.730611801147461,-0.1908276081085205,-5.184648513793945
1684592005072829000,1.464828857421875,7.806583881378174,-0.12502498924732208,-5.050650596618652
1684592005089697800,1.48169775390625,8.256434440612793,-0.45583271980285645,-5.208576679229736
1684592005106578000,1.498577880859375,8.689535140991211,-0.2799602448940277,-5.261219024658203
1684592005123451000,1.515450927734375,8.736793518066406,-0.16031911969184875,-5.265406131744385
1684592005140323800,1.53232373046875,8.898907661437988,-0.05144568532705307,-5.188836097717285
1684592005157197000,1.549197021484375,8.793622970581055,-0.0077766734175384045,-5.270191669464111
1684592005174070800,1.56607080078125,8.779864311218262,-0.17946170270442963,-5.419145107269287
1684592005190943700,1.58294384765625,8.751151084899902,-0.12203395366668701,-5.408975601196289
1684592005207817000,1.59981689453125,8.565707206726074,-0.2829512655735016,-5.6823554039001465
1684592005224690400,1.6166904296875,8.360522270202637,-0.1579262912273407,-5.835496425628662
1684592005241558300,1.633558349609375,8.384450912475586,-0.25363919138908386,-5.892923831939697
1684592005258425600,1.650425537109375,8.652446746826172,-0.49292147159576416,-5.9407806396484375
1684592005275309300,1.667309326171875,9.297910690307617,-0.833898663520813,-6.19920539855957
1684592005292182800,1.684182861328125,9.604191780090332,-1.0348957777023315,-6.338587284088135
1684592005309051400,1.701051513671875,9.800403594970703,-1.1455638408660889,-6.305087566375732
1684592005325929500,1.717929443359375,9.757332801818848,-1.1383854150772095,-5.544169902801514
1684592005342800100,1.734800048828125,9.160323143005371,-1.0426725149154663,-4.835894584655762
1684592005359677700,1.751677734375,8.639883995056152,-0.9607182741165161,-4.405186653137207
1684592005376549000,1.768549072265625,8.287541389465332,-1.1084750890731812,-4.109074592590332
1684592005393419300,1.785419189453125,7.911269664764404,-1.3752747774124146,-4.0420756340026855
1684592005410307600,1.8023076171875,7.328019142150879,-0.9720842242240906,-4.0420756340026855
1684592005427168500,1.81916845703125,7.534400463104248,-1.3160524368286133,-4.334598064422607
1684592005444041500,1.83604150390625,7.923832416534424,-1.9184455871582031,-4.784449100494385
1684592005460914400,1.85291455078125,8.038089752197266,-1.922034740447998,-5.344967365264893
1684592005477788700,1.86978857421875,8.085946083068848,-1.887937068939209,-5.684150218963623
1684592005494660900,1.886660888671875,8.018946647644043,-1.7730815410614014,-5.621936798095703
1684592005511534000,1.9035341796875,8.037490844726562,-1.710868239402771,-5.5692949295043945
1684592005528407600,1.920407470703125,8.018348693847656,-1.6683956384658813,-5.401797294616699
1684592005545280800,1.93728076171875,8.158329010009766,-2.1619153022766113,-5.158327579498291
1684592005562154000,1.954154052734375,8.639286041259766,-3.056830883026123,-5.2354960441589355
1684592005579027200,1.971027099609375,8.179265975952148,-2.6847469806671143,-4.579862594604492
1684592005595900200,1.987900146484375,7.514061450958252,-2.210369825363159,-4.091128349304199
1684592005612773000,2.004773193359375,6.896114826202393,-1.5774682760238647,-4.086342811584473
1684592005629638000,2.021637939453125,6.689733982086182,-1.1455638408660889,-4.506881237030029
1684592005646519800,2.038519775390625,6.9104719161987305,-1.4075778722763062,-5.004588603973389
1684592005663393000,2.05539306640625,7.403393268585205,-1.8346967697143555,-4.986044406890869
1684592005680263700,2.072263671875,7.665407180786133,-1.7312071323394775,-4.7030930519104
1684592005697139500,2.089139404296875,7.691728591918945,-1.2789636850357056,-4.1760735511779785
1684592005714012700,2.1060126953125,6.9206414222717285,-0.5108676552772522,-4.329214572906494
1684592005730888400,2.122888427734375,6.613163471221924,-1.0289137363433838,-5.076373100280762
1684592005747758800,2.1397587890625,7.023532867431641,-2.1852452754974365,-5.7858452796936035
1684592005764632000,2.156632080078125,7.3776702880859375,-2.420340061187744,-5.843272686004639
1684592005781505500,2.173505615234375,6.735795974731445,-1.8849459886550903,-5.178068161010742
1684592005798378500,2.19037841796875,6.522834300994873,-1.0911271572113037,-5.0811591148376465
1684592005815251700,2.207251708984375,6.388238430023193,-0.7830511927604675,-5.631507873535156
1684592005832125000,2.224125,6.87816858291626,-1.5667005777359009,-6.278168201446533
1684592005848998000,2.240997802734375,7.497311592102051,-2.427518606185913,-6.838686943054199
1684592005865868300,2.257868408203125,8.041678428649902,-2.640479803085327,-6.498906135559082
1684592005882747100,2.2747470703125,7.953742504119873,-2.255833625793457,-5.550750255584717
1684592005899617500,2.291617431640625,6.9104719161987305,-2.6075785160064697,-5.049454212188721
1684592005916495000,2.3084951171875,4.557130813598633,-2.1924238204956055,-5.667400360107422
1684592005933364200,2.3253642578125,3.397209882736206,-1.8035900592803955,-6.7106709480285645
1684592005950229500,2.3422294921875,2.743969440460205,-1.8239290714263916,-7.132406234741211
1684592005967109000,2.359109130859375,2.585444927215576,-2.7176482677459717,-7.004390239715576
1684592005983984400,2.375984375,2.927020311355591,-3.504288673400879,-6.3493547439575195
1684592006000858600,2.392858642578125,2.8695926666259766,-4.579264163970947,-6.537191390991211
1684592006017728300,2.409728271484375,3.407379388809204,-6.427121639251709,-7.989634990692139
1684592006034602800,2.426602783203125,3.0131618976593018,-6.728617191314697,-9.263215065002441
1684592006051476200,2.443476318359375,2.472383975982666,-6.251249313354492,-10.02413272857666
1684592006068349700,2.460349609375,2.466402053833008,-5.950351715087891,-10.085747718811035
1684592006085222400,2.477222412109375,2.0572292804718018,-6.1944193840026855,-11.196615219116211
1684592006102095600,2.494095703125,1.683350682258606,-6.766902446746826,-12.872787475585938
1684592006118969000,2.510968994140625,1.1443674564361572,-7.70249605178833,-14.57767391204834
1684592006135842300,2.52784228515625,1.1635099649429321,-7.63310432434082,-15.520445823669434
1684592006152715500,2.544715576171875,1.0103694200515747,-7.405786037445068,-16.501502990722656
1684592006169588500,2.56158837890625,1.3908281326293945,-6.067600250244141,-16.810775756835938
1684592006186462000,2.5784619140625,1.6456637382507324,-4.350749969482422,-15.688541412353516
1684592006203320300,2.5953203125,1.8711873292922974,-3.6400814056396484,-13.500903129577637
1684592006220210700,2.612210693359375,1.6265212297439575,-3.4923245906829834,-11.322836875915527
1684592006237072100,2.629072021484375,0.49351966381073,-3.071187973022461,-10.045069694519043
1684592006253963800,2.6459638671875,-0.7076773047447205,-2.0895323753356934,-9.374481201171875
1684592006270827800,2.662827880859375,-1.6785650253295898,-1.5804593563079834,-8.986844062805176
1684592006287701200,2.679701171875,-3.6227335929870605,-0.8979067206382751,-8.158926963806152
1684592006304574000,2.696573974609375,-8.964710235595703,-1.222732424736023,-5.553741455078125
1684592006321447200,2.713447265625,-6.628118515014648,-1.0887342691421509,-4.848456859588623
1684592006338320100,2.730320068359375,-6.818946361541748,-2.2881367206573486,-4.6061835289001465
1684592006355191000,2.74719091796875,-6.97268533706665,-5.408377170562744,-4.944767951965332
1684592006372069400,2.7640693359375,-1.6564314365386963,-4.6438703536987305,-7.434499740600586
1684592006388939800,2.780939697265625,-2.2857437133789062,-4.688137531280518,-8.004590034484863
1684592006405813200,2.797813232421875,-2.0267207622528076,-3.930211305618286,-7.668398380279541
1684592006422686200,2.814686279296875,-0.8069794178009033,-4.7952165603637695,-7.3675007820129395
1684592006439559400,2.831559326171875,-0.34995031356811523,-4.684548377990723,-6.314060688018799
1684592006456432400,2.848432373046875,-2.1194427013397217,-3.5958142280578613,-5.648257732391357
1684592006473305900,2.865305908203125,-3.466601848602295,-3.1764719486236572,-5.356931686401367
1684592006490179000,2.882178955078125,-3.903291940689087,-3.589233875274658,-6.070590972900391
1684592006507054600,2.8990546875,-2.0279171466827393,-6.425326824188232,-2.2438695430755615
1684592006523923000,2.9159228515625,-0.8638089895248413,-8.851051330566406,-1.0115658044815063
1684592006540798700,2.932798828125,-2.3712873458862305,-9.936196327209473,-0.8506484627723694
1684592006557671700,2.949671630859375,-4.623531341552734,-10.896316528320312,-2.159522533416748
1684592006574545000,2.966544921875,-5.763113498687744,-8.572287559509277,-2.8037898540496826
1684592006591418400,2.98341845703125,-4.381856441497803,-10.052248001098633,-7.049853801727295
1684592006608291300,3.000291259765625,-7.121040344238281,-14.356935501098633,-6.482156753540039
1684592006625164500,3.01716455078125,-1.551147222518921,-11.70269775390625,-6.222535133361816
1684592006642027000,3.034027099609375,-2.8731818199157715,-6.822535514831543,-8.155936241149902
1684592006658924300,3.05092431640625,-4.671388149261475,-8.041080474853516,-8.105687141418457
1684592006675784000,3.067783935546875,-4.97348165512085,-11.218151092529297,-6.534798622131348
1684592006692657200,3.0846572265625,-1.7700905799865723,-10.765907287597656,-6.010770320892334
1684592006709530600,3.101530517578125,-1.815554141998291,-8.909076690673828,-6.8033928871154785
1684592006726402000,3.118402099609375,-3.387040376663208,-7.262814998626709,-7.496115207672119
1684592006743275500,3.135275634765625,-3.7459638118743896,-6.874579429626465,-7.428517818450928
1684592006760153000,3.152153076171875,-2.5944180488586426,-6.208776473999023,-7.561319351196289
1684592006777023000,3.16902294921875,-3.1232316493988037,-5.149354457855225,-8.058428764343262
1684592006793908200,3.185908203125,-4.153940200805664,-5.151747226715088,-7.670791149139404
1684592006810769400,3.202769287109375,-4.191029071807861,-4.328616142272949,-6.1914286613464355
1684592006827643000,3.219642822265625,-3.087937593460083,-4.695316314697266,-6.272186279296875
1684592006844516000,3.23651611328125,-1.9698911905288696,-5.295316696166992,-4.798207759857178
1684592006861389000,3.25338916015625,-1.4452649354934692,-5.316253662109375,-2.922234535217285
1684592006878262300,3.27026220703125,-0.8374879360198975,-4.724030017852783,-1.7724833488464355
1684592006895135500,3.287135498046875,-1.4632110595703125,-4.460819721221924,-2.743969440460205
1684592006912008400,3.304008544921875,-1.3704891204833984,-3.7322051525115967,-3.6909289360046387
1684592006928870000,3.320869873046875,-0.9397810697555542,-3.0275187492370605,-3.10109806060791
1684592006945748700,3.337748779296875,-0.4043870270252228,-2.242672920227051,-2.372483730316162
1684592006962628400,3.35462841796875,-0.7794619798660278,-1.573280930519104,-1.9555343389511108
1684592006979501600,3.37150146484375,-0.5581258535385132,-3.125624656677246,-2.7804598808288574
1684592006996364300,3.3883642578125,-0.2063809484243393,-8.327022552490234,-4.581058979034424
1684592007013237200,3.4052373046875,-0.2560320198535919,-15.836896896362305,-6.260222434997559
1684592007030126800,3.422126953125,-1.0390832424163818,-23.775684356689453,-5.537590026855469
1684592007046994200,3.438994140625,-3.1004998683929443,-26.128427505493164,-0.9511470198631287
1684592007063867100,3.4558671875,-4.868795871734619,-22.227527618408203,2.770888566970825
1684592007080737300,3.4727373046875,-1.6325032711029053,-12.563515663146973,4.774877548217773
1684592007097617200,3.4896171875,10.13898754119873,-5.374279499053955,3.324826955795288
1684592007114487000,3.506487060546875,-1.7784653902053833,-8.37846851348877,3.9086756706237793
1684592007131360000,3.523360107421875,-16.420146942138672,-9.960124015808105,3.1339993476867676
1684592007148233000,3.54023291015625,-10.804192543029785,-9.136395454406738,1.2903295755386353
1684592007165106200,3.557106201171875,-1.7748762369155884,-10.137192726135254,0.22612173855304718
1684592007181979600,3.573979736328125,0.26919254660606384,-10.613365173339844,-1.0558329820632935
1684592007198852900,3.590852783203125,1.0390832424163818,-11.097312927246094,-1.5780665874481201
1684592007215726000,3.60772607421875,1.8388842344284058,-10.607382774353027,-1.5002998113632202
1684592007232599300,3.624599365234375,1.6307085752487183,-9.919445991516113,-1.059422254562378
1684592007249472300,3.64147216796875,1.77607262134552,-9.32722282409668,-1.2065808773040771
1684592007266345200,3.65834521484375,1.7850457429885864,-9.265008926391602,-1.158724308013916
1684592007283218400,3.675218505859375,0.5940182209014893,-9.58205795288086,-0.8967102766036987
1684592007300092000,3.692091796875,-1.155733346939087,-9.768099784851074,-0.8883354067802429
1684592007316965000,3.708965087890625,-2.1655044555664062,-10.176076889038086,-0.8033902049064636
1684592007333838300,3.72583837890625,-1.8442680835723877,-10.458429336547852,-0.9996016621589661
1684592007350715100,3.742715087890625,-0.7004988193511963,-10.265807151794434,-1.1228320598602295
1684592007367584500,3.75958447265625,-0.5006981492042542,-10.092926025390625,-1.6205391883850098
1684592007384447700,3.77644775390625,0.7280163168907166,-9.494720458984375,-3.500101327896118
1684592007401324500,3.793324462890625,1.0995019674301147,-9.286544799804688,-4.83051061630249
1684592007418204200,3.8102041015625,0.6699903607368469,-9.264410972595215,-3.73459792137146
1684592007435080000,3.827079833984375,0.14416755735874176,-8.088338851928711,-1.3495519161224365
1684592007451951400,3.843951416015625,0.3936193287372589,-7.3914289474487305,0.5892325639724731
1684592007468820500,3.860820556640625,0.2715853750705719,-7.934599876403809,1.7808582782745361
1684592007485696800,3.87769677734375,-0.21774685382843018,-9.607182502746582,2.2713868618011475
1684592007502570000,3.894570068359375,-0.867398202419281,-10.449456214904785,1.6671991348266602
1684592007519443200,3.911443115234375,-1.334596872329712,-10.536794662475586,0.8003991842269897
1684592007536316700,3.928316650390625,-1.581655740737915,-10.677372932434082,0.16809579730033875
1684592007553189600,3.945189697265625,-1.3465609550476074,-11.035099983215332,-0.4540380835533142
1684592007570066400,3.96206640625,-0.13280165195465088,-11.405388832092285,-1.1431710720062256
1684592007586935800,3.978935791015625,1.2394821643829346,-10.98724365234375,-1.7641085386276245
1684592007603809000,3.99580908203125,1.7784653902053833,-9.873384475708008,-2.4089741706848145
1684592007620682200,4.01268212890625,1.6223337650299072,-8.925228118896484,-2.87198543548584
1684592007637545000,4.029544921875,1.0289137363433838,-8.38265609741211,-3.235694408416748
1684592007654429000,4.046428955078125,1.0719845294952393,-8.46341323852539,-3.331407308578491
1684592007671302000,4.063302001953125,0.649053156375885,-8.8109712600708,-3.5234313011169434
1684592007688175000,4.080175048828125,-1.0426725149154663,-9.186046600341797,-4.146761417388916
1684592007705048000,4.097048095703125,-2.7140591144561768,-9.857831001281738,-4.89990234375
1684592007721910800,4.113910888671875,-2.5196423530578613,-10.646265983581543,-5.2115678787231445
1684592007738794500,4.13079443359375,-1.755135416984558,-10.99860954284668,-4.6995038986206055
1684592007755673600,4.147673583984375,-1.1174482107162476,-10.722238540649414,-3.3589248657226562
1684592007772541000,4.164541015625,-0.30209386348724365,-9.55513858795166,-2.950350284576416
1684592007789414400,4.181414306640625,0.6107679605484009,-8.816354751586914,-3.087937593460083
1684592007806286800,4.198286865234375,1.064207911491394,-8.913862228393555,-3.0544381141662598
1684592007823161300,4.215161376953125,1.2263215780258179,-8.846863746643066,-3.1304101943969727
1684592007840033500,4.232033447265625,1.0396814346313477,-8.788837432861328,-3.1686954498291016
1684592007856906800,4.24890673828125,1.0013962984085083,-8.779266357421875,-3.149552822113037
1684592007873780200,4.2657802734375,1.0875378847122192,-8.760722160339355,-3.1208388805389404
1684592007890653200,4.282653076171875,1.083350419998169,-8.98086166381836,-2.8486554622650146
1684592007907526400,4.2995263671875,1.0462616682052612,-9.215956687927246,-2.4945175647735596
1684592007924399600,4.316399658203125,0.8171489238739014,-9.153742790222168,-2.3365912437438965
1684592007941281800,4.33328173828125,0.597607433795929,-9.124430656433105,-2.3270199298858643
1684592007958145800,4.350145751953125,0.5736792087554932,-9.22433090209961,-2.4185454845428467
1684592007975019000,4.36701904296875,0.8039883971214294,-9.415757179260254,-2.6195425987243652
1684592007991892500,4.383892578125,0.9278169870376587,-9.458230018615723,-2.9688947200775146
1684592008008763000,4.400762939453125,0.8997012972831726,-9.505488395690918,-3.2608189582824707
1684592008025642800,4.417642822265625,0.8045865893363953,-9.542576789855957,-3.428316593170166
1684592008042507800,4.4345078125,0.6376872062683105,-9.489336013793945,-3.5096726417541504
1684592008059387600,4.4513876953125,0.46002015471458435,-9.302098274230957,-3.538386583328247
1684592008076258000,4.468258056640625,0.38285163044929504,-9.130413055419922,-3.4378879070281982
1684592008093131300,4.48513134765625,0.4301098585128784,-9.016156196594238,-3.3415768146514893
1684592008110005000,4.5020048828125,0.33499518036842346,-9.111868858337402,-3.098107099533081
1684592008126878000,4.5188779296875,0.268594354391098,-9.17886734008789,-3.026322364807129
1684592008143751000,4.5357509765625,0.2356930375099182,-9.269794464111328,-2.978466033935547
1684592008160624400,4.552624267578125,0.3170489966869354,-9.312865257263184,-2.9353952407836914
1684592008177497600,4.56949755859375,0.37447673082351685,-9.394820213317871,-2.743969440460205
1684592008194370300,4.586370361328125,0.35054850578308105,-9.448060035705566,-2.6434707641601562
1684592008211243800,4.603243896484375,0.18305093050003052,-9.30867862701416,-2.5908286571502686
1684592008228117000,4.620116943359375,0.08733802288770676,-9.260822296142578,-2.547757863998413
1684592008244990200,4.636990234375,0.15912270545959473,-9.270393371582031,-2.5812573432922363
1684592008261863400,4.653863525390625,0.08793623000383377,-9.289535522460938,-2.538186550140381
1684592008278733000,4.670733154296875,-0.07896314561367035,-9.399007797241211,-2.6009981632232666
1684592008295598600,4.6875986328125,-0.3320041298866272,-9.34457015991211,-2.830709218978882
1684592008312482800,4.70448291015625,-0.37088751792907715,-9.013762474060059,-3.1746773719787598
1684592008329356000,4.72135595703125,-0.17587246000766754,-8.94676399230957,-3.418745279312134
1684592008346226700,4.738226806640625,-0.046061836183071136,-9.090332984924316,-3.4809587001800537
1684592008363102500,4.7551025390625,-0.12263216078281403,-9.148359298706055,-3.294318675994873
1684592008379979800,4.771979736328125,-0.10887342691421509,-8.96231746673584,-3.1651060581207275
1684592008396846300,4.788846435546875,0.052043892443180084,-8.632705688476562,-3.3415768146514893
1684592008413723000,4.805722900390625,0.09870393574237823,-8.440681457519531,-3.6047873497009277
1684592008430595300,4.82259521484375,0.3415754437446594,-8.23011302947998,-3.9870407581329346
1684592008447468300,4.83946826171875,0.5377869009971619,-8.445467948913574,-4.178466320037842
1684592008464341500,4.856341552734375,0.3810569941997528,-8.645268440246582,-4.246063709259033
1684592008481214700,4.873214599609375,0.4905286431312561,-8.554341316223145,-4.528416633605957
1684592008498088000,4.890087890625,1.5194423198699951,-9.302098274230957,-4.872983455657959
1684592008514961200,4.906961181640625,2.448455810546875,-11.249855995178223,-5.13320255279541
1684592008531834400,4.92383447265625,1.591825246810913,-12.818948745727539,-5.542375564575195
1684592008548707300,4.940707275390625,-0.0029910283628851175,-13.615758895874023,-5.927021503448486
1684592008565580300,4.957580322265625,-0.28893333673477173,-13.716856002807617,-5.228915691375732
1684592008582453800,4.974453857421875,-0.2709871530532837,-12.469596862792969,-3.456432342529297
1684592008599327000,4.991326904296875,-2.114656925201416,-11.864212989807129,-2.3461625576019287
1684592008616200200,5.0082001953125,-5.43290376663208,-12.396018028259277,-1.7024933099746704
1684592008633073200,5.0250732421875,-4.509274482727051,-11.910872459411621,-1.7874385118484497
1684592008649936000,5.041935791015625,-1.2999008893966675,-10.625926971435547,-1.731805443763733
1684592008666812700,5.058812744140625,0.4749752879142761,-9.531808853149414,-1.700698733329773
1684592008683692800,5.07569287109375,0.6759724020957947,-8.657830238342285,-1.6803597211837769
1684592008700566300,5.092566162109375,-0.4486542344093323,-8.763114929199219,-2.049452543258667
1684592008717438500,5.1094384765625,-1.194616675376892,-9.515059471130371,-2.544168710708618
1684592008734311700,5.126311767578125,-0.33738797903060913,-10.262816429138184,-2.788236618041992
1684592008751187500,5.1431875,1.7539390325546265,-10.732407569885254,-2.8791637420654297
1684592008768058600,5.16005859375,2.3258235454559326,-10.6295166015625,-2.778067111968994
1684592008784931800,5.176931884765625,1.6941183805465698,-10.164710998535156,-2.5525436401367188
1684592008801805000,5.19380517578125,0.2829512655735016,-9.30030345916748,-2.2845473289489746
1684592008818678300,5.21067822265625,-0.768694281578064,-8.686544418334961,-1.867598056793213
1684592008835551500,5.227551513671875,-1.3417752981185913,-8.532805442810059,-1.485344648361206
1684592008852424700,5.2444248046875,-1.0085747241973877,-8.448458671569824,-1.2502498626708984
1684592008869297700,5.261297607421875,-0.8273184299468994,-8.410771369934082,-1.1018948554992676
1684592008886168600,5.27816845703125,-0.7190431952476501,-8.158329010009766,-1.0199406147003174
1684592008903046700,5.295046630859375,-0.6855437159538269,-8.1493558883667,-0.8859425783157349
1684592008919917000,5.3119169921875,-0.7010970115661621,-7.872984886169434,-0.46002015471458435
1684592008936790800,5.328790771484375,-0.5030909776687622,-7.373483180999756,0.32123643159866333
1684592008953663700,5.345663818359375,-0.4815555512905121,-6.87816858291626,0.8626125454902649
1684592008970537000,5.362536865234375,-0.6221339106559753,-6.419943332672119,1.2508480548858643
1684592008987410000,5.379409912109375,-0.7519445419311523,-6.199803352355957,1.4327025413513184
1684592009004283100,5.396283203125,-1.0707881450653076,-6.290132522583008,1.4991034269332886
1684592009021156400,5.41315625,-1.755135416984558,-6.942176818847656,1.378864049911499
1684592009038029600,5.430029541015625,-2.9527430534362793,-7.926225185394287,0.6059823632240295
1684592009054903000,5.446903076171875,-4.598406791687012,-8.902496337890625,-0.5491527915000916
1684592009071776300,5.4637763671875,-5.8372907638549805,-10.397412300109863,-1.2550355195999146
1684592009088649200,5.480649169921875,-6.93619441986084,-12.180065155029297,-2.042872428894043
1684592009105522400,5.4975224609375,-8.080561637878418,-13.320245742797852,-3.245863914489746
1684592009122395400,5.5143955078125,-7.76889705657959,-12.53599739074707,-3.6466617584228516
1684592009139268600,5.5312685546875,-5.282754421234131,-10.549356460571289,-2.33180570602417
1684592009156141800,5.548141845703125,-3.005983352661133,-8.7445707321167,-0.672383189201355
1684592009173015000,5.56501513671875,-2.7176482677459717,-7.146762847900391,0.2721835672855377
1684592009189888500,5.581888427734375,-3.078366279602051,-6.366703033447266,0.4163511395454407
1684592009206762000,5.598761962890625,-3.8530426025390625,-8.155936241149902,0.11724831163883209
1684592009223640800,5.615640869140625,-3.8949170112609863,-12.860823631286621,-1.2137593030929565
1684592009240508000,5.6325078125,-2.5986053943634033,-17.16072654724121,-1.654038667678833
1684592009257380900,5.649380859375,-3.0544381141662598,-19.964515686035156,-1.9830517768859863
1684592009274254000,5.666254150390625,-2.746960401535034,-14.759528160095215,-2.163111686706543
1684592009291127800,5.6831279296875,-1.789831280708313,-8.602795600891113,-1.485344648361206
1684592009308000300,5.700000244140625,-0.20518454909324646,-5.604588985443115,-0.2225325107574463
1684592009324874000,5.7168740234375,0.3684946894645691,-3.5569307804107666,0.19202402234077454
1684592009341746700,5.73374658203125,0.9373882412910461,-2.765504837036133,0.3607180118560791
1684592009358620000,5.750619873046875,1.8628123998641968,-3.9254255294799805,0.388235479593277
1684592009375493000,5.7674931640625,2.991626501083374,-6.963113784790039,-0.12203395366668701
1684592009392366300,5.784366455078125,4.207778453826904,-11.36231803894043,-0.7722834944725037
1684592009409239800,5.80123974609375,3.586242914199829,-14.46162223815918,-1.1832507848739624
1684592009426111000,5.818111083984375,2.132004976272583,-14.580066680908203,-1.730010747909546
1684592009442988000,5.834988037109375,-4.494917392730713,-10.732407569885254,-2.8869404792785645
1684592009459859500,5.851859375,-1.594218134880066,-8.59621524810791,-2.5094728469848633
1684592009476732200,5.868732177734375,-0.4576273262500763,-6.605985164642334,-2.664407968521118
1684592009493605400,5.88560546875,-0.8578268885612488,-6.6490559577941895,-3.8949170112609863
1684592009510465500,5.902465576171875,-0.2548356056213379,-8.213961601257324,-3.8673996925354004
1684592009527354600,5.919354736328125,-1.947757601737976,-9.605986595153809,-3.372683525085449
1684592009544225000,5.93622509765625,-2.1409780979156494,-10.06002426147461,-3.1004998683929443
1684592009561098000,5.953097900390625,0.21355941891670227,-9.671789169311523,-2.6727828979492188
1684592009577958700,5.969958740234375,0.9828519225120544,-8.895915985107422,-2.417349100112915
1684592009594844700,5.9868447265625,0.8273184299468994,-8.193024635314941,-2.234896421432495
1684592009611718000,6.0037177734375,0.6598208546638489,-8.179265975952148,-1.8855443000793457
1684592009628590800,6.0205908203125,0.47976094484329224,-8.489734649658203,-1.7617156505584717
1684592009645464300,6.03746435546875,0.18723836541175842,-9.153742790222168,-1.6671991348266602
1684592009662337500,6.054337646484375,-0.24406790733337402,-9.878767967224121,-1.6390835046768188
1684592009679210800,6.071210693359375,-0.33798620104789734,-10.222736358642578,-1.6588243246078491
1684592009696073500,6.088073486328125,0.21236300468444824,-9.472586631774902,-2.2127628326416016
1684592009712957000,6.10495703125,0.8255237936973572,-8.860024452209473,-3.212364435195923
1684592009729830100,6.121830078125,1.2233306169509888,-9.328418731689453,-3.61435866355896
1684592009746703000,6.138703125,0.058624155819416046,-10.256834030151367,-3.7405800819396973
1684592009763576300,6.155576416015625,-2.018345832824707,-10.845468521118164,-4.46979284286499
1684592009780449500,6.172449462890625,-1.0013962984085083,-11.033305168151855,-5.120640277862549
1684592009797323000,6.189322998046875,1.1306086778640747,-10.96750259399414,-5.444868087768555
1684592009814196200,6.2061962890625,-0.1740778535604477,-12.543176651000977,-6.356533527374268
1684592009831069400,6.2230693359375,-2.960519790649414,-14.544174194335938,-7.360920429229736
1684592009847942400,6.2399423828125,0.8464609980583191,-13.568500518798828,-6.788437843322754
1684592009864815400,6.2568154296875,2.4741785526275635,-11.742178916931152,-5.066802024841309
1684592009881689000,6.273689208984375,0.5694918036460876,-10.445867538452148,-3.2476584911346436
1684592009898562000,6.29056201171875,-2.4029922485351562,-10.272387504577637,-2.018944025039673
1684592009915435300,6.307435302734375,-2.7212376594543457,-10.65942668914795,-1.7994025945663452
1684592009932308500,6.32430859375,-0.9230313301086426,-10.644471168518066,-2.190629243850708
1684592009949171000,6.3411708984375,0.1381855010986328,-11.092527389526367,-2.276770830154419
1684592009966051300,6.35805126953125,0.550349235534668,-11.5914306640625,-1.9519450664520264
1684592009982920700,6.374920654296875,0.5682953596115112,-11.387442588806152,-1.4925230741500854
1684592009999801300,6.39180126953125,0.6945167779922485,-10.77248764038086,-0.97926265001297
1684592010016674000,6.408674072265625,0.10588239878416061,-10.432706832885742,-0.37148571014404297
1684592010033547300,6.42554736328125,1.0325030088424683,-9.600603103637695,0.16151553392410278
1684592010050410200,6.44241015625,0.9852447509765625,-8.511270523071289,0.44027936458587646
1684592010067293700,6.459293701171875,0.0687936544418335,-7.336992263793945,0.3116651475429535
1684592010084167000,6.4761669921875,-0.9361918568611145,-6.430112838745117,0.06340979784727097
1684592010101035800,6.493035888671875,-2.3497519493103027,-5.999404430389404,-0.1902294009923935
1684592010117900500,6.509900634765625,-2.940778970718384,-6.178866386413574,-0.3248256742954254
1684592010134784000,6.526783935546875,-2.1242282390594482,-6.329614162445068,-0.33918261528015137
1684592010151649300,6.543649169921875,-0.966102123260498,-6.079564094543457,-0.3475574851036072
1684592010168530400,6.560530517578125,-0.20997019112110138,-5.627918720245361,-0.44745782017707825
1684592010185409000,6.577408935546875,0.23389841616153717,-5.638686656951904,-0.5144568681716919
1684592010202279400,6.594279541015625,0.0849452018737793,-6.4947190284729,-0.12741780281066895
1684592010219152600,6.611152587890625,-1.3226326704025269,-7.610372543334961,0.33439695835113525
1684592010236025900,6.62802587890625,-4.3310089111328125,-9.068199157714844,0.29790642857551575
1684592010252899000,6.644899169921875,-7.921439170837402,-10.439287185668945,-1.0839486122131348
1684592010269772000,6.66177197265625,-8.846863746643066,-11.401800155639648,-2.9521448612213135
1684592010286645200,6.678645263671875,-7.2951178550720215,-11.650653839111328,-4.607379913330078
1684592010303518500,6.6955185546875,-5.410171985626221,-10.683355331420898,-5.6823554039001465
1684592010320391700,6.7123916015625,-3.7806596755981445,-9.097511291503906,-5.507679462432861
1684592010337265000,6.729264892578125,-3.2201411724090576,-8.73200798034668,-3.4534413814544678
1684592010354138000,6.74613818359375,-2.581855535507202,-8.726624488830566,-0.7872386574745178
1684592010371011000,6.763010986328125,-2.5357937812805176,-10.63250732421875,0.5030909776687622
1684592010387884300,6.77988427734375,-1.8161523342132568,-12.717253684997559,-0.04486542567610741
1684592010404757500,6.796757568359375,-1.2747762203216553,-14.46880054473877,0.10169496387243271
1684592010421631000,6.813630859375,-0.5587241053581238,-14.703296661376953,1.1832507848739624
1684592010438493200,6.8304931640625,0.9613165259361267,-13.238889694213867,2.1481566429138184
1684592010455377200,6.847377197265625,1.113858938217163,-10.832307815551758,1.2699905633926392
1684592010472250000,6.86425,-2.857628345489502,-8.755936622619629,-1.8735800981521606
1684592010489123300,6.881123291015625,-5.897111415863037,-7.416553974151611,-2.4526431560516357
1684592010505993000,6.897992919921875,-3.565305709838867,-7.152146816253662,-2.087737798690796
1684592010522873600,6.91487353515625,1.6773686408996582,-7.322635650634766,-1.7216359376907349
1684592010539742700,6.93174267578125,3.4791641235351562,-7.083951473236084,-1.9932212829589844
1684592010556616400,6.948616455078125,3.3708889484405518,-8.458627700805664,-2.531008243560791
1684592010573489400,6.965489501953125,2.6727828979492188,-10.329814910888672,-2.7391836643218994
1684592010590349600,6.982349609375,1.6893328428268433,-11.263614654541016,-2.640479803085327
1684592010607238100,6.999238037109375,-0.6269195079803467,-10.701300621032715,-2.8175487518310547
1684592010624108800,7.01610888671875,-1.290927767753601,-9.260223388671875,-2.9072794914245605
1684592010640982300,7.032982177734375,0.4384847581386566,-8.773882865905762,-2.700300455093384
1684592010657855500,7.04985546875,0.6909275650978088,-8.597412109375,-2.848057270050049
1684592010674728700,7.066728759765625,0.357128769159317,-8.672187805175781,-3.0927233695983887
1684592010691591000,7.0835908203125,0.43130627274513245,-9.265607833862305,-2.8588249683380127
1684592010708475000,7.100474853515625,-0.4456632137298584,-9.493523597717285,-2.5052852630615234
1684592010725347800,7.117347900390625,-0.8470591902732849,-9.276973724365234,-2.572284460067749
1684592010742221300,7.13422119140625,0.27337998151779175,-9.21296501159668,-2.7631118297576904
1684592010759094500,7.151094482421875,0.373878538608551,-9.327820777893066,-2.844467878341675
1684592010775967700,7.1679677734375,-0.3122633695602417,-9.383454322814941,-2.7828526496887207
1684592010792840400,7.18484033203125,-0.21296121180057526,-9.216554641723633,-2.705684185028076
1684592010809714000,7.2017138671875,0.35892340540885925,-9.061020851135254,-2.599801778793335
1684592010826587100,7.218587158203125,0.768694281578064,-9.071788787841797,-2.4705893993377686
1684592010843460400,7.23546044921875,0.7932206988334656,-9.163313865661621,-2.3605196475982666
1684592010860333600,7.25233349609375,0.7363911867141724,-9.229715347290039,-2.3605196475982666
1684592010877206800,7.269206787109375,0.9846464991569519,-9.268598556518555,-2.4323041439056396
1684592010894079500,7.28607958984375,1.2945170402526855,-9.322437286376953,-2.4705893993377686
1684592010910953000,7.302952880859375,1.3615161180496216,-9.32722282409668,-2.480160713195801
1684592010927823600,7.31982373046875,1.2323036193847656,-9.264410972595215,-2.5663022994995117
1684592010944702200,7.3367021484375,1.1563315391540527,-9.339784622192383,-2.772084951400757
1684592010961572600,7.353572509765625,1.1234302520751953,-9.439684867858887,-2.954537868499756
1684592010978445800,7.37044580078125,1.095314621925354,-9.463613510131836,-3.050250768661499
1684592010995319000,7.387319091796875,1.0193424224853516,-9.534799575805664,-3.0837502479553223
1684592011012192000,7.40419189453125,0.7328019142150879,-9.471389770507812,-3.160320520401001
1684592011029065200,7.421065185546875,0.4941178858280182,-9.394221305847168,-3.284747362136841
1684592011045938400,7.4379384765625,0.4169493317604065,-9.29312515258789,-3.356531858444214
1684592011062812000,7.45481201171875,0.4259224236011505,-9.072985649108887,-3.379862070083618
1684592011079685000,7.47168505859375,0.35832518339157104,-8.919844627380371,-3.4085757732391357
1684592011096558300,7.488558349609375,0.43549370765686035,-9.139984130859375,-3.5048868656158447
1684592011113431000,7.50543115234375,0.42711883783340454,-9.445069313049316,-3.6819558143615723
1684592011130298600,7.522298583984375,0.39900317788124084,-9.53061294555664,-3.8596229553222656
1684592011147177700,7.539177734375,0.8721838593482971,-9.689735412597656,-3.954737663269043
1684592011164050700,7.55605078125,1.1886346340179443,-10.125228881835938,-4.098905086517334
1684592011180924200,7.572924072265625,0.7716853022575378,-10.76830005645752,-4.497310161590576
1684592011197797000,7.589797119140625,-0.5850451588630676,-11.264810562133789,-5.020142078399658
1684592011214670600,7.606670654296875,-2.0554347038269043,-12.28415298461914,-4.505086898803711
1684592011231543600,7.62354345703125,-1.8460626602172852,-12.221940040588379,-3.002394199371338
1684592011248417000,7.6404169921875,-0.768694281578064,-10.960922241210938,-2.1242282390594482
1684592011265289700,7.657289794921875,-0.6717849373817444,-10.205986976623535,-2.0273189544677734
1684592011282161700,7.67416162109375,-0.48514479398727417,-10.422536849975586,-1.8795621395111084
1684592011299038000,7.691037841796875,-0.5904290080070496,-10.2747802734375,-1.5774682760238647
1684592011315909600,7.70790966796875,-0.6753742098808289,-9.496515274047852,-1.1748759746551514
1684592011332782600,7.724782470703125,-0.33858439326286316,-9.039485931396484,-0.8344969153404236
1684592011349656000,7.741656005859375,0.8117650747299194,-9.257830619812012,-0.8865407705307007
1684592011366529000,7.758529052734375,1.8317056894302368,-10.063613891601562,-1.1120643615722656
1684592011383402200,7.77540234375,1.954936146736145,-11.005189895629883,-1.3046865463256836
1684592011400275700,7.792275634765625,1.2544373273849487,-11.145169258117676,-1.664208173751831
1684592011417148700,7.809148681640625,-0.5467599630355835,-10.401599884033203,-2.3533411026000977
1684592011434021600,7.826021728515625,-2.028515338897705,-9.607781410217285,-2.568695068359375
1684592011450894800,7.842894775390625,-2.231905221939087,-8.962915420532227,-2.122433662414551
1684592011467768000,7.85976806640625,-1.7868403196334839,-8.282156944274902,-1.633699655532837
1684592011484641000,7.87664111328125,-1.545763373374939,-7.724629878997803,-1.3453645706176758
1684592011501514500,7.893514404296875,-1.789831280708313,-7.5708909034729,-1.201795220375061
1684592011518388000,7.910387939453125,-2.2887349128723145,-8.067999839782715,-0.7956135272979736
1684592011535261000,7.927260986328125,-2.562713146209717,-8.772088050842285,0.05503492057323456
1684592011552134100,7.944134033203125,-2.613560438156128,-9.159127235412598,0.25064817070961
1684592011569007400,7.96100732421875,-2.7140591144561768,-9.018548965454102,-0.44805604219436646
1684592011585877500,7.97787744140625,-2.929413080215454,-8.776275634765625,-1.5337992906570435
1684592011602756400,7.99475634765625,-2.705684185028076,-8.630910873413086,-2.3569302558898926
1684592011619627000,8.011626953125,-2.038684844970703,-8.388039588928223,-2.8109683990478516
1684592011636500000,8.0285,-1.3824533224105835,-7.926823139190674,-2.796013355255127
1684592011653373200,8.045373291015625,-1.0444670915603638,-7.689335346221924,-2.6662025451660156
1684592011670236200,8.062236083984375,-1.292722463607788,-7.674380302429199,-2.4987051486968994
1684592011687119400,8.079119384765624,-1.7443677186965942,-8.060821533203125,-2.3126630783081055
1684592011703992800,8.095992919921875,-2.610569477081299,-8.474181175231934,-2.1272194385528564
1684592011720866000,8.112865966796875,-3.277568817138672,-8.759525299072266,-1.898106575012207
1684592011737739300,8.1297392578125,-3.7154552936553955,-8.964710235595703,-1.49611234664917
1684592011754612500,8.146612548828125,-3.597010612487793,-8.874979019165039,-1.1754741668701172
1684592011771485400,8.1634853515625,-3.173480987548828,-8.651848793029785,-1.1748759746551514
1684592011788358700,8.180358642578126,-2.854637384414673,-8.451449394226074,-1.5050854682922363
1684592011805231900,8.19723193359375,-2.5292134284973145,-8.556135177612305,-1.9310078620910645
1684592011822094600,8.214094482421874,-2.6225335597991943,-9.023334503173828,-2.3670997619628906
1684592011838978300,8.230978271484375,-3.149552822113037,-9.608379364013672,-2.8181469440460205
1684592011855851500,8.2478515625,-3.7196428775787354,-10.145567893981934,-3.1824541091918945
1684592011872724500,8.264724365234375,-3.9804604053497314,-10.517053604125977,-3.3792638778686523
1684592011889598000,8.281597900390626,-3.566502094268799,-11.388639450073242,-3.322434186935425
1684592011906471200,8.29847119140625,-2.7553353309631348,-12.65444278717041,-2.9359934329986572
1684592011923344000,8.31534375,-2.258824586868286,-11.740982055664062,-1.7766708135604858
1684592011940217300,8.33221728515625,-1.6139588356018066,-9.7669038772583,-0.7830511927604675
1684592011957090600,8.349090576171875,-1.0109676122665405,-9.042476654052734,-0.6239284873008728
1684592011973961000,8.3659609375,-0.6215356588363647,-8.679964065551758,-0.8961120843887329
1684592011990839600,8.382839599609374,-0.7770691514015198,-9.022137641906738,-1.3226326704025269
1684592012007710200,8.399710205078126,-1.461416482925415,-9.66520881652832,-1.4817553758621216
1684592012024583400,8.41658349609375,-1.2023934125900269,-8.858827590942383,-1.2699905633926392
1684592012041456600,8.43345654296875,-0.3122633695602417,-8.441878318786621,-0.9529415965080261
1684592012058329900,8.450329833984375,-0.053240302950143814,-8.835497856140137,-0.6472585201263428
1684592012075202800,8.467202880859375,-0.9128618240356445,-9.721440315246582,-0.7489534616470337
1684592012092076000,8.484075927734375,-2.225325107574463,-10.666604995727539,-1.5026925802230835
1684592012108949200,8.50094921875,-2.373081922531128,-10.48534870147705,-2.9718856811523438
1684592012125820400,8.5178203125,-1.1676974296569824,-10.16291618347168,-3.410968780517578
1684592012142700800,8.53470068359375,-0.3732803463935852,-9.626325607299805,-3.0412776470184326
1684592012159565800,8.55156591796875,-0.5042873620986938,-9.125029563903809,-2.51425838470459
1684592012176441600,8.568441650390625,-0.605384111404419,-8.944371223449707,-2.179263114929199
1684592012193310200,8.585310302734374,-0.20338992774486542,-9.247062683105469,-1.9304096698760986
1684592012210188300,8.602188232421875,0.3080759048461914,-9.569496154785156,-1.8490537405014038
1684592012227061800,8.619061767578126,0.43190449476242065,-9.574281692504883,-1.9160526990890503
1684592012243934700,8.635934814453124,0.4414757788181305,-9.531210899353027,-1.944766640663147
1684592012260808000,8.652807861328125,0.7178468108177185,-9.44626522064209,-1.9830517768859863
1684592012277681000,8.669680908203125,0.9744769930839539,-9.260223388671875,-2.1164517402648926
1684592012294554400,8.686554443359375,1.1359925270080566,-9.055039405822754,-2.197807550430298
1684592012311427600,8.703427490234375,1.1216355562210083,-9.083154678344727,-2.3605196475982666
1684592012328300800,8.72030078125,1.0701899528503418,-9.182456970214844,-2.5950162410736084
1684592012345174000,8.737174072265624,0.9182456731796265,-9.44447135925293,-2.743969440460205
1684592012362047200,8.754047119140624,0.6999006271362305,-9.711270332336426,-2.8971099853515625
1684592012378920200,8.770920166015625,0.44386860728263855,-10.045069694519043,-2.888136863708496
1684592012395793400,8.78779345703125,0.2392822653055191,-10.226325988769531,-2.7690939903259277
1684592012412666600,8.80466650390625,0.038285162299871445,-10.01037311553955,-2.740380048751831
1684592012429539800,8.821539794921875,0.07537391036748886,-9.69093132019043,-2.667997360229492
1684592012446413000,8.8384130859375,0.32183465361595154,-9.31884765625,-2.595614433288574
1684592012463286300,8.855286376953124,0.5970092415809631,-8.965906143188477,-2.561516523361206
1684592012480159500,8.872159423828125,0.6532405614852905,-8.779864311218262,-2.5088746547698975
1684592012497032700,8.88903271484375,0.5814558863639832,-8.755936622619629,-2.465803623199463
1684592012513905700,8.90590576171875,0.5970092415809631,-9.019146919250488,-2.4370899200439453
1684592012530779000,8.92277880859375,0.5168496966362,-9.257830619812012,-2.4185454845428467
1684592012547652000,8.939652099609376,0.32662028074264526,-9.357730865478516,-2.2989044189453125
1684592012564525300,8.956525390625,0.1453639715909958,-9.362516403198242,-2.1888344287872314
1684592012581398500,8.9733984375,0.04486542567610741,-9.319445610046387,-2.083550214767456
1684592012598271700,8.990271728515625,0.09212367236614227,-9.229117393493652,-1.9543378353118896
1684592012615144700,9.007144775390625,0.25423741340637207,-9.253643035888672,-1.9543378353118896
1684592012632018000,9.024017822265625,0.1824527233839035,-9.209376335144043,-2.2271196842193604
1684592012648891100,9.04089111328125,0.10229317098855972,-9.32722282409668,-2.6530420780181885
1684592012665764400,9.057764404296876,0.3080759048461914,-9.523433685302734,-3.0215368270874023
1684592012682637800,9.074637939453124,0.5760720372200012,-9.637691497802734,-3.294318675994873
1684592012699511000,9.091510986328124,0.355932354927063,-9.498309135437012,-3.4618160724639893
1684592012716383700,9.1083837890625,0.0023928226437419653,-9.267401695251465,-3.552743434906006
1684592012733257200,9.12525732421875,0.08315058797597885,-9.234500885009766,-3.538386583328247
1684592012750131200,9.142131103515625,0.32662028074264526,-9.249456405639648,-3.5814573764801025
1684592012767003600,9.159003662109376,0.15972091257572174,-9.287142753601074,-3.5910286903381348
1684592012783876900,9.175876953125,-0.21236300468444824,-9.256634712219238,-3.7639100551605225
1684592012800750000,9.19275,-0.32243284583091736,-9.241081237792969,-4.01754903793335
1684592012817623000,9.209623046875,-0.18963119387626648,-8.925827026367188,-4.127020835876465
1684592012834496500,9.22649658203125,0.31465616822242737,-8.722436904907227,-3.9397823810577393
1684592012851369500,9.243369384765625,0.8273184299468994,-9.182456970214844,-4.241876125335693
1684592012868232000,9.26023193359375,1.2646067142486572,-9.991828918457031,-4.170690059661865
1684592012885115600,9.27711572265625,2.026122570037842,-10.749157905578613,-4.2622151374816895
1684592012901989000,9.293989013671874,1.134796142578125,-11.919845581054688,-5.053641319274902
1684592012918862300,9.3108623046875,-0.6394818425178528,-13.082757949829102,-6.089733600616455
1684592012935735600,9.327735595703125,-0.5156532526016235,-14.085948944091797,-6.421139717102051
1684592012952608500,9.3446083984375,0.17347964644432068,-13.619348526000977,-4.797609329223633
1684592012969481500,9.3614814453125,-1.2975081205368042,-11.218151092529297,-1.9573289155960083
1684592012986355000,9.37835498046875,-1.1270195245742798,-8.751151084899902,-0.37028929591178894
1684592013003228200,9.395228271484376,-1.5535401105880737,-8.181060791015625,-0.3314059376716614
1684592013020101600,9.4121015625,-2.0398812294006348,-8.250452041625977,-0.8057830333709717
1684592013036974600,9.428974609375,-0.7238288521766663,-8.080561637878418,-1.441077470779419
1684592013053847600,9.44584765625,1.0163514614105225,-7.777870178222656,-2.2582263946533203
1684592013070721000,9.462720947265625,1.7665013074874878,-8.066205024719238,-2.6123640537261963
1684592013087594200,9.47959423828125,1.8317056894302368,-8.782257080078125,-3.0107691287994385
1684592013104467200,9.49646728515625,1.4506487846374512,-10.13300609588623,-3.280559778213501
1684592013121340700,9.513340576171874,-0.7184450030326843,-11.554940223693848,-3.5748770236968994
1684592013138214000,9.5302138671875,-4.29033088684082,-11.72004508972168,-3.8117663860321045
1684592013155086800,9.5470869140625,-3.1268210411071777,-10.477572441101074,-3.0723843574523926
1684592013171960000,9.5639599609375,-0.7184450030326843,-9.343972206115723,-2.59621262550354
1684592013188833500,9.58083349609375,-0.29312077164649963,-8.390432357788086,-2.1882362365722656
1684592013205706200,9.597706298828125,-0.7106683254241943,-7.826324462890625,-1.7042878866195679
1684592013222579700,9.614579833984376,-1.4685949087142944,-7.872386455535889,-1.469791293144226
1684592013239453000,9.631452880859374,-1.872383713722229,-8.306683540344238,-1.2987045049667358
1684592013256326100,9.648326171875,-1.5852450132369995,-8.542975425720215,-0.9541380405426025
1684592013273199000,9.66519921875,-1.3956137895584106,-8.34855842590332,-0.4749752879142761
1684592013290066400,9.68206640625,-1.5487544536590576,-8.220541954040527,0.003589233849197626
1684592013306933000,9.69893310546875,-2.3742783069610596,-8.25703239440918,0.4001995921134949
1684592013323814700,9.715814697265625,-3.2027931213378906,-8.541778564453125,0.672383189201355
1684592013340692000,9.73269189453125,-3.3828530311584473,-8.828319549560547,0.6622136831283569
1684592013357565200,9.749565185546874,-2.998206853866577,-8.459824562072754,-0.016749758273363113
1684592013374438400,9.7664384765625,-2.62313175201416,-7.94716215133667,-0.833898663520813
1684592013391311400,9.783311279296875,-2.318047046661377,-7.7940216064453125,-1.207179069519043
1684592013408184600,9.8001845703125,-2.3802602291107178,-7.817351341247559,-1.2837493419647217
1684592013425058000,9.81705810546875,-2.504088878631592,-7.841279983520508,-1.2741780281066895
1684592013441931300,9.83393115234375,-2.651845693588257,-7.874181270599365,-1.3316057920455933
1684592013458804200,9.85080419921875,-2.799004316329956,-7.968697547912598,-1.5332010984420776
1684592013475677200,9.86767724609375,-3.1172497272491455,-8.306683540344238,-1.6965112686157227
1684592013492550700,9.884550537109375,-3.6155550479888916,-8.902496337890625,-1.7736797332763672
1684592013509423900,9.901423828125,-4.457230567932129,-9.611370086669922,-1.8897316455841064
1684592013526296000,9.918296142578125,-5.423930644989014,-9.913464546203613,-2.211566209793091
1684592013543171000,9.935171142578126,-5.638686656951904,-9.887741088867188,-2.6470601558685303
1684592013560049400,9.95204931640625,-4.869992256164551,-9.981060981750488,-2.6805596351623535
1684592013576916700,9.968916748046874,-4.445266246795654,-10.066006660461426,-1.7850457429885864
1684592013593789700,9.985789794921875,-4.094717979431152,-9.591629981994629,-0.8464609980583191
1684592013610663000,10.002662841796875,-3.500699520111084,-9.150752067565918,-0.06520441919565201
1684592013627536100,10.0195361328125,-2.7834508419036865,-8.446065902709961,0.12203395366668701
1684592013644409600,10.03640966796875,-2.3186452388763428,-8.9581298828125,-0.3278166949748993
1684592013661282300,10.0532822265625,-2.316850423812866,-11.531012535095215,-1.7282161712646484
1684592013678155800,10.07015576171875,-2.5836503505706787,-13.826327323913574,-2.7457640171051025
1684592013695029000,10.087029052734374,-1.8502501249313354,-14.675779342651367,-2.4113669395446777
1684592013711902200,10.103902099609375,-0.2350948303937912,-13.13839054107666,-1.7341982126235962
1684592013728775400,10.120775390625,-0.4061816334724426,-11.082956314086914,-1.6217355728149414
1684592013745648400,10.1376484375,-2.0614166259765625,-9.800403594970703,-2.104487419128418
1684592013762521300,10.154521240234375,-3.6945180892944336,-8.271987915039062,-1.5337992906570435
1684592013779395000,10.17139501953125,-5.264808177947998,-7.0654072761535645,-0.2841476798057556
1684592013796265500,10.188265380859375,-2.877967357635498,-7.494320392608643,-0.08733802288770676
1684592013813143800,10.205143798828125,1.9657038450241089,-7.8556365966796875,-1.109073281288147
1684592013830014700,10.2220146484375,3.7226338386535645,-8.300103187561035,-1.482353687286377
1684592013846887700,10.2388876953125,3.483351469039917,-9.20698356628418,-1.674975872039795
1684592013863760600,10.2557607421875,2.4029922485351562,-9.80100154876709,-1.7240287065505981
1684592013880634000,10.272634033203126,1.6396816968917847,-9.789037704467773,-1.7389838695526123
1684592013897507000,10.289507080078126,1.4189438819885254,-9.45763111114502,-1.9154545068740845
1684592013914380300,10.30638037109375,1.3758729696273804,-9.303893089294434,-2.2265214920043945
1684592013931253500,10.32325341796875,1.189831018447876,-9.340981483459473,-2.451446771621704
1684592013948126700,10.340126708984375,0.49351966381073,-9.352945327758789,-2.5764718055725098
1684592013965000000,10.357,-0.641276478767395,-9.510871887207031,-2.8450660705566406
1684592013981873200,10.373873046875,-0.4773681163787842,-9.80219841003418,-3.1854450702667236
1684592013998746000,10.39074609375,0.16091732680797577,-9.564111709594727,-3.5772697925567627
1684592014015619600,10.40761962890625,-0.6089733839035034,-9.092127799987793,-3.9984066486358643
1684592014032492500,10.424492431640624,-0.5413761138916016,-9.230911254882812,-4.06540584564209
1684592014049365800,10.44136572265625,0.2602194547653198,-9.372686386108398,-3.8638103008270264
1684592014066236400,10.458236328125,-0.46899324655532837,-9.533005714416504,-3.672982692718506
1684592014083114800,10.47511474609375,-0.9798609018325806,-9.422337532043457,-3.438486099243164
1684592014099985200,10.491985107421876,-0.06041877344250679,-9.115457534790039,-3.1746773719787598
1684592014116858600,10.508858642578126,0.9206385016441345,-8.870193481445312,-2.953939437866211
1684592014133731800,10.52573193359375,1.2448660135269165,-8.781061172485352,-2.8002007007598877
1684592014150604800,10.542604736328125,0.9774680733680725,-8.665607452392578,-2.795415163040161
1684592014167478300,10.559478271484375,0.44745782017707825,-8.61057186126709,-2.9341988563537598
1684592014184351200,10.576351318359375,0.4145565330982208,-8.734400749206543,-3.1070802211761475
1684592014201224400,10.593224365234375,1.0456634759902954,-9.056235313415527,-3.2650065422058105
1684592014218098000,10.610097900390626,1.3950155973434448,-9.267401695251465,-3.4085757732391357
1684592014234971100,10.62697119140625,1.1324033737182617,-9.256634712219238,-3.623929977416992
1684592014251839700,10.64383984375,0.5838487148284912,-9.144171714782715,-3.8398821353912354
1684592014268717300,10.66071728515625,0.2877369225025177,-9.09093189239502,-3.744169235229492
1684592014285590500,10.677590576171875,0.5497509837150574,-9.049057006835938,-3.6095728874206543
1684592014302463700,10.694463623046875,0.6681957244873047,-8.906085968017578,-3.566502094268799
1684592014319337000,10.7113369140625,0.4295116662979126,-8.809774398803711,-3.55214524269104
1684592014336210200,10.728210205078126,0.11545369029045105,-8.94257640838623,-3.6915271282196045
1684592014353083000,10.745082763671874,-0.08853443711996078,-9.266205787658691,-3.844667673110962
1684592014369956400,10.761956298828125,0.03170489892363548,-9.458230018615723,-3.8596229553222656
1684592014386829600,10.77882958984375,0.1740778535604477,-9.29611587524414,-3.79681134223938
1684592014403702800,10.795702880859375,0.053240302950143814,-8.989834785461426,-3.8159539699554443
1684592014420576000,10.812575927734375,-0.01375873014330864,-8.860024452209473,-3.854238986968994
1684592014437449200,10.82944921875,0.1908276081085205,-8.769695281982422,-4.006781578063965
1684592014454322000,10.846322021484376,0.486939400434494,-8.736793518066406,-4.140779495239258
1684592014471195400,10.8631953125,0.6203392744064331,-8.770891189575195,-4.159922122955322
1684592014488066600,10.880066650390624,0.6634100675582886,-8.761320114135742,-4.246063709259033
1684592014504943900,10.89694384765625,0.3164508044719696,-9.099306106567383,-4.280161380767822
1684592014521815000,10.91381494140625,0.06939185410737991,-9.337990760803223,-4.180261135101318
1684592014538688300,10.930688232421875,0.7381857633590698,-9.613164901733398,-3.844667673110962
1684592014555561500,10.9475615234375,1.4249259233474731,-10.718050956726074,-4.281357765197754
1684592014572434400,10.964434326171874,1.4691931009292603,-12.117254257202148,-4.9531426429748535
1684592014589308000,10.981307861328125,1.506281852722168,-12.933206558227539,-5.437689304351807
1684592014606178300,10.99817822265625,0.882951557636261,-13.278968811035156,-5.9886369705200195
1684592014623056600,11.015056640625,-1.2681959867477417,-12.166306495666504,-6.543771743774414
1684592014639927600,11.031927490234375,-1.0498509407043457,-10.930414199829102,-4.287938117980957
1684592014656800800,11.04880078125,0.026919255033135414,-9.678369522094727,-1.8592232465744019
1684592014673673700,11.065673828125,-0.4995017349720001,-8.208578109741211,-0.3164508044719696
1684592014690536200,11.0825361328125,-1.9872392416000366,-8.295317649841309,-0.08733802288770676
1684592014707420200,11.099420166015625,-2.2157537937164307,-8.408378601074219,-0.34636107087135315
1684592014724293000,11.116293212890625,-0.5509474277496338,-8.46042251586914,-0.7429714202880859
1684592014741166600,11.13316650390625,0.96370929479599,-8.986245155334473,-0.8859425783157349
1684592014758039800,11.150039794921875,1.693520188331604,-10.17308521270752,-1.088136076927185
1684592014774912800,11.166912841796876,1.6654045581817627,-11.356934547424316,-1.6785650253295898
1684592014791785700,11.18378564453125,1.3782658576965332,-12.31525993347168,-2.1678972244262695
1684592014808659200,11.2006591796875,0.9888339638710022,-12.705887794494629,-2.3024935722351074
1684592014825532200,11.2175322265625,-2.6703901290893555,-11.304292678833008,-3.6957144737243652
1684592014842405600,11.234405517578125,-1.5272190570831299,-9.78963565826416,-3.1956145763397217
1684592014859278800,11.25127880859375,-0.7106683254241943,-8.886942863464355,-1.9208383560180664
1684592014876152000,11.268152099609376,-1.088136076927185,-7.611568927764893,-1.3022937774658203
1684592014893025000,11.28502490234375,-1.0929217338562012,-6.545566558837891,-1.2047861814498901
1684592014909898500,11.3018984375,-1.170688509941101,-6.119643688201904,-1.2765709161758423
1684592014926771500,11.318771484375,-1.5355939865112305,-6.6729841232299805,-1.3968101739883423
1684592014943644700,11.335644775390625,-1.578664779663086,-7.835297584533691,-1.0965110063552856
1684592014960518000,11.352517822265625,-1.4093725681304932,-8.549555778503418,-0.355932354927063
1684592014977391000,11.36939111328125,-1.932204246520996,-8.964710235595703,-0.0023928226437419653
1684592014994264000,11.38626416015625,-3.1136605739593506,-9.276374816894531,-0.10827522724866867
1684592015011137300,11.40313720703125,-4.278367042541504,-9.084351539611816,-0.8745766878128052
1684592015028010500,11.420010498046874,-4.2933220863342285,-8.809774398803711,-1.573280930519104
1684592015044875000,11.436875,-3.359523057937622,-8.558527946472168,-1.9405791759490967
1684592015061757000,11.4537568359375,-2.296511650085449,-8.356334686279297,-2.0165512561798096
1684592015078630100,11.470630126953125,-1.7437695264816284,-8.315656661987305,-1.7916259765625
1684592015095503400,11.48750341796875,-1.5667005777359009,-8.402995109558105,-1.4225330352783203
1684592015112376300,11.504376220703126,-1.6845471858978271,-8.733802795410156,-1.0019944906234741
1684592015129249800,11.521249755859374,-2.293520450592041,-9.19143009185791,-0.6059823632240295
1684592015146120000,11.538119873046876,-3.3469607830047607,-9.364909172058105,-0.5826523303985596
1684592015162998800,11.554998779296875,-4.196412563323975,-9.251849174499512,-0.9511470198631287
1684592015179869200,11.571869140625,-4.420739650726318,-9.130413055419922,-1.333998680114746
1684592015196742400,11.588742431640625,-3.900300979614258,-9.351749420166016,-1.4632110595703125
1684592015213615600,11.60561572265625,-3.3852458000183105,-9.324830055236816,-1.3770694732666016
1684592015230478300,11.622478271484376,-3.056830883026123,-9.144769668579102,-1.0893324613571167
1684592015247362000,11.639362060546874,-3.0616166591644287,-9.117252349853516,-0.5964110493659973
1684592015264235000,11.656235107421875,-3.0526435375213623,-9.070592880249023,-0.23748764395713806
1684592015281108500,11.6731083984375,-2.843271493911743,-9.019146919250488,-0.1178465187549591
1684592015297981400,11.6899814453125,-2.5328028202056885,-9.014959335327148,-0.1986042857170105
1684592015314854700,11.706854736328125,-2.4993033409118652,-9.023932456970215,-0.5718846321105957
1684592015331728000,11.723727783203126,-2.80558443069458,-9.832108497619629,-1.8221344947814941
1684592015348601000,11.74060107421875,-2.830111026763916,-11.83011531829834,-3.5910286903381348
1684592015365474300,11.757474365234375,-2.6368906497955322,-12.291930198669434,-4.47697114944458
1684592015382340400,11.77434033203125,-1.7676976919174194,-11.478968620300293,-3.786043643951416
1684592015399220700,11.791220703125,-0.08614161610603333,-11.119446754455566,-2.54536509513855
1684592015416093700,11.80809375,0.137587308883667,-10.949556350708008,-2.008774518966675
1684592015432967000,11.824966796875,-3.077169895172119,-11.062019348144531,-2.62313175201416
1684592015449840400,11.84184033203125,-3.238685369491577,-11.260025024414062,-1.805384635925293
1684592015466713300,11.85871337890625,-5.212764263153076,-9.347561836242676,0.30209386348724365
1684592015483586300,11.87558642578125,-4.249054908752441,-8.166703224182129,1.0839486122131348
1684592015500459800,11.892459716796875,-0.784247636795044,-7.502097129821777,0.3684946894645691
1684592015517333000,11.9093330078125,1.4524433612823486,-7.298707485198975,0.2787638306617737
1684592015534206200,11.926206298828125,3.0556344985961914,-8.642276763916016,0.3164508044719696
1684592015551079000,11.943078857421876,3.6358940601348877,-10.426126480102539,-0.039481572806835175
1684592015567952400,11.959952392578124,2.936591625213623,-10.909476280212402,-0.7537391185760498
1684592015584825300,11.976825439453124,2.222334146499634,-9.89133071899414,-1.6666009426116943
1684592015601698800,11.99369873046875,0.5802595019340515,-8.473583221435547,-2.527418851852417
1684592015618572000,12.010572021484375,0.9170492887496948,-7.981858253479004,-2.723032236099243
1684592015635445200,12.0274453125,1.4141582250595093,-8.14098072052002,-2.857030153274536
1684592015652318200,12.044318115234375,1.0061819553375244,-8.664410591125488,-3.163909673690796
1684592015669191400,12.06119140625,0.05503492057323456,-9.358329772949219,-3.648456335067749
1684592015686062800,12.078062744140626,-0.7417750358581543,-10.51226806640625,-3.741178274154663
1684592015702939400,12.094939453125,-0.30927231907844543,-11.337193489074707,-3.0867412090301514
1684592015719811000,12.11181103515625,-0.3924229145050049,-10.8699951171875,-2.5740790367126465
1684592015736670500,12.12867041015625,-0.7722834944725037,-10.14736270904541,-2.444268226623535
1684592015753557500,12.1455576171875,-0.7674978375434875,-10.070792198181152,-2.6159534454345703
1684592015770420000,12.162419921875,-0.2554338276386261,-10.449456214904785,-2.774477958679199
1684592015787303700,12.1793037109375,0.2925225794315338,-10.322636604309082,-2.5537400245666504
1684592015804177000,12.196177001953124,0.6083751320838928,-9.477970123291016,-2.32761812210083
1684592015821050000,12.213050048828125,1.236491084098816,-9.179466247558594,-2.183450698852539
1684592015837922800,12.2299228515625,1.714457392692566,-9.352945327758789,-2.159522533416748
1684592015854796500,12.246796630859375,1.6199408769607544,-9.54377269744873,-2.307877540588379
1684592015871669500,12.26366943359375,1.2203395366668701,-9.742377281188965,-2.490330219268799
1684592015888542700,12.280542724609376,1.0247262716293335,-9.80399227142334,-2.475973129272461
1684592015905416000,12.297416015625,1.1341979503631592,-9.719047546386719,-2.3228325843811035
1684592015922289400,12.314289306640624,0.9756734371185303,-9.513264656066895,-2.0883359909057617
1684592015939162400,12.331162353515625,0.5018945336341858,-9.182456970214844,-1.8628123998641968
1684592015956035600,12.34803564453125,-0.07956135272979736,-9.214759826660156,-1.7724833488464355
1684592015972908500,12.364908447265625,-0.537188708782196,-9.279366493225098,-2.0309081077575684
1684592015989782000,12.381781982421876,-0.22791635990142822,-9.05862808227539,-2.782254457473755
1684592016006655200,12.3986552734375,0.2638086974620819,-9.182456970214844,-3.3756744861602783
1684592016023528200,12.415528076171874,0.4654040038585663,-9.469595909118652,-3.4713873863220215
1684592016040401400,12.4324013671875,-0.7058826684951782,-8.73499870300293,-3.4857444763183594
1684592016057274600,12.449274658203125,-2.038684844970703,-8.261817932128906,-3.524029493331909
1684592016074147600,12.466147705078125,-0.2679961323738098,-8.549555778503418,-3.4707891941070557
1684592016091021000,12.48302099609375,1.1599208116531372,-8.927620887756348,-3.2267212867736816
1684592016107894300,12.499894287109376,1.3956137895584106,-9.407382011413574,-2.968296527862549
1684592016124767200,12.516767333984374,1.0342975854873657,-9.861420631408691,-2.5286152362823486
1684592016141640400,12.533640380859374,0.6101697683334351,-9.865608215332031,-2.1128623485565186
1684592016158513700,12.550513671875,-0.031106693670153618,-9.534799575805664,-1.7437695264816284
1684592016175386600,12.56738671875,-0.355932354927063,-9.367900848388672,-1.389631748199463
1684592016192260000,12.584260009765625,-0.09272187948226929,-9.555737495422363,-0.997208833694458
1684592016209133000,12.601133056640625,0.24167509377002716,-9.815957069396973,-0.7728816866874695
1684592016226005500,12.618005615234376,0.31405797600746155,-9.958928108215332,-0.8207381963729858
1684592016242880500,12.634880615234374,-0.2153540402650833,-9.980463027954102,-1.2131611108779907
1684592016259753000,12.6517529296875,-0.6915257573127747,-10.13479995727539,-1.922034740447998
1684592016276625700,12.668625732421875,-0.714257538318634,-10.262218475341797,-2.4634108543395996
1684592016293499000,12.685498779296875,-0.3774677813053131,-9.836296081542969,-2.960519790649414
1684592016310361600,12.702361572265625,0.12263216078281403,-9.622138023376465,-3.208775281906128
1684592016327245300,12.719245361328126,0.4612165689468384,-9.518050193786621,-3.284747362136841
1684592016344118500,12.736118408203126,0.5742774605751038,-9.303893089294434,-3.1794631481170654
1684592016360991700,12.75299169921875,0.7405785918235779,-9.123234748840332,-2.915654420852661
1684592016377865000,12.769864990234375,0.9732806086540222,-8.952746391296387,-2.685943365097046
1684592016394738200,12.78673828125,1.2352946996688843,-8.83370304107666,-2.6422743797302246
1684592016411611400,12.803611328125,1.3980066776275635,-8.886942863464355,-2.6662025451660156
1684592016428474000,12.82047412109375,1.551147222518921,-9.09272575378418,-2.857628345489502
1684592016445357600,12.837357666015626,1.5188441276550293,-9.250054359436035,-2.93001127243042
1684592016462230800,12.854230712890624,1.2179467678070068,-9.248857498168945,-2.9252257347106934
1684592016479104000,12.87110400390625,0.6891329288482666,-9.30449104309082,-2.8827531337738037
1684592016495966200,12.88796630859375,0.2745763957500458,-9.509077072143555,-2.9593234062194824
1684592016512846600,12.9048466796875,0.09451649338006973,-9.794421195983887,-3.1130621433258057
1684592016529723100,12.92172314453125,0.07597211748361588,-9.903892517089844,-3.2709884643554688
1684592016546596600,12.9385966796875,-0.25304099917411804,-9.811769485473633,-3.510869026184082
1684592016563469800,12.9554697265625,-0.6448656916618347,-9.642477035522461,-3.7262229919433594
1684592016580343000,12.972343017578124,-0.24047867953777313,-9.442676544189453,-3.87876558303833
1684592016597216300,12.98921630859375,0.6418746709823608,-9.393025398254395,-3.830310821533203
1684592016614089200,13.006089111328125,1.170688509941101,-9.189635276794434,-3.6670007705688477
1684592016630962400,13.02296240234375,1.3555340766906738,-8.9850492477417,-3.5617165565490723
1684592016647835600,13.039835693359375,1.3459627628326416,-8.9850492477417,-3.4845480918884277
1684592016664707000,13.05670703125,1.2598211765289307,-8.941978454589844,-3.4372897148132324
1684592016681584000,13.073584228515625,1.168893814086914,-8.870193481445312,-3.34576416015625
1684592016698455300,13.090455322265624,1.1024930477142334,-8.874979019165039,-3.221935749053955
1684592016715328500,13.10732861328125,1.0163514614105225,-8.884550094604492,-3.135794162750244
1684592016732201500,13.124201416015625,1.0600204467773438,-8.980263710021973,-3.1453654766082764
1684592016749075000,13.141074951171875,1.0839486122131348,-9.07119083404541,-3.159722328186035
1684592016765948000,13.157947998046875,1.1126625537872314,-9.07119083404541,-3.1070802211761475
1684592016782821000,13.174821044921876,1.1312068700790405,-9.028717994689941,-3.0831520557403564
1684592016799694300,13.1916943359375,1.074975609779358,-9.152546882629395,-3.126222848892212
1684592016816567600,13.208567626953124,0.6891329288482666,-9.284749984741211,-3.1316065788269043
1684592016833440500,13.2254404296875,0.4408775866031647,-9.279366493225098,-3.1316065788269043
1684592016850305300,13.24230517578125,0.13938191533088684,-9.08255672454834,-3.1507492065429688
1684592016867186700,13.259186767578125,-0.3523431420326233,-8.893523216247559,-3.490530014038086
1684592016884060200,13.27606005859375,-0.6628118753433228,-8.70927619934082,-4.079164505004883
1684592016900933400,13.292933349609376,-0.47198426723480225,-8.708678245544434,-4.476373195648193
1684592016917804000,13.309803955078126,0.024526432156562805,-8.787042617797852,-4.552345275878906
1684592016934682000,13.32668212890625,0.7657032608985901,-9.234500885009766,-4.337589263916016
1684592016951552800,13.343552734375,1.0115658044815063,-10.04447078704834,-3.658625841140747
1684592016968425700,13.36042578125,0.9385846853256226,-10.853843688964844,-2.9940192699432373
1684592016985299200,13.37729931640625,0.5096712112426758,-11.00160026550293,-2.7936203479766846
1684592017002172400,13.39417236328125,0.268594354391098,-11.411371231079102,-2.8516464233398438
1684592017019045400,13.41104541015625,0.2961117923259735,-12.348759651184082,-2.8145575523376465
1684592017035918800,13.4279189453125,-0.7304090857505798,-13.356138229370117,-2.012363910675049
1684592017052791800,13.444791748046875,-2.2809581756591797,-13.374083518981934,-0.649053156375885
1684592017069665300,13.461665283203125,-3.0352954864501953,-12.169896125793457,0.5246263742446899
1684592017086538200,13.478538330078125,-2.8809585571289062,-10.335797309875488,0.7663014531135559
1684592017103411200,13.4954111328125,-2.899502754211426,-9.18843936920166,-0.9696913957595825
1684592017120273700,13.512273681640625,-2.981456995010376,-8.82114028930664,-2.4819552898406982
1684592017137158000,13.529157958984374,-2.2923240661621094,-8.209774017333984,-3.098107099533081
1684592017154030800,13.54603076171875,-1.236491084098816,-7.313064098358154,-3.5509488582611084
1684592017170903800,13.56290380859375,-0.8315058946609497,-7.1850481033325195,-3.713660717010498
1684592017187777000,13.579777099609375,-0.4995017349720001,-8.043473243713379,-3.1447670459747314
1684592017204650200,13.596650146484375,0.010169495828449726,-8.987442016601562,-2.729612350463867
1684592017221523200,13.613523193359375,-1.0546365976333618,-9.771689414978027,-3.0993034839630127
1684592017238396700,13.630396728515626,-1.9399809837341309,-10.298110008239746,-3.7704901695251465
1684592017255270000,13.647269775390624,-1.911865234375,-10.15573787689209,-3.4546377658843994
1684592017272143000,13.66414306640625,-1.5469598770141602,-9.661619186401367,-2.572882652282715
1684592017289016300,13.681016357421875,-0.9427721500396729,-9.29731273651123,-1.892722725868225
1684592017305886700,13.69788671875,-0.44327038526535034,-9.080163955688477,-1.5906288623809814
1684592017322764800,13.714764892578126,-0.5060819983482361,-8.773882865905762,-1.5469598770141602
1684592017339635700,13.7316357421875,-1.0504491329193115,-8.666803359985352,-1.6719847917556763
1684592017356508200,13.748508056640626,-1.2544373273849487,-8.895318031311035,-1.6863417625427246
1684592017373383000,13.7653828125,-1.5248262882232666,-9.253643035888672,-1.5720844268798828
1684592017390261500,13.782261474609374,-2.073380708694458,-9.357730865478516,-1.1754741668701172
1684592017407128300,13.79912841796875,-2.2845473289489746,-9.148957252502441,-0.380458801984787
1684592017424001500,13.81600146484375,-1.9716858863830566,-8.650651931762695,0.44327038526535034
1684592017440874800,13.832874755859375,-1.4877375364303589,-8.161319732666016,1.0372886657714844
1684592017457748000,13.849748046875,-0.8614161610603333,-7.341179847717285,1.1874382495880127
1684592017474621200,13.86662109375,-0.5778666734695435,-6.729813575744629,0.9248259663581848
1684592017491494100,13.883494140625,-0.9924231767654419,-6.692724704742432,0.19740787148475647
1684592017508367400,13.900367431640625,-1.9920248985290527,-7.098308563232422,-0.7848458290100098
1684592017525240300,13.917240234375,-2.8558337688446045,-8.159524917602539,-1.5140584707260132
1684592017542113800,13.93411376953125,-3.8386857509613037,-9.18305492401123,-1.970489501953125
1684592017558978300,13.950978271484376,-4.938786029815674,-9.632905960083008,-2.3784656524658203
1684592017575860000,13.96785986328125,-5.766702651977539,-9.968499183654785,-2.7667012214660645
1684592017592733400,13.9847333984375,-6.1334028244018555,-10.089935302734375,-3.355933666229248
1684592017609606400,14.0016064453125,-5.72422981262207,-9.851250648498535,-3.6472599506378174
1684592017626479600,14.018479736328125,-4.0833516120910645,-9.906285285949707,-2.8426733016967773
1684592017643352600,14.0353525390625,-3.469592809677124,-9.596415519714355,-1.482353687286377
1684592017660225500,14.0522255859375,-3.8015968799591064,-9.072386741638184,-0.49651068449020386
1684592017677099000,14.06909912109375,-4.398007869720459,-11.259427070617676,-0.5706881880760193
1684592017693972200,14.08597216796875,-3.329014539718628,-14.725430488586426,-1.6031911373138428
1684592017710842600,14.102842529296876,-1.4913266897201538,-17.29292869567871,-1.7874385118484497
1684592017727721200,14.11972119140625,-0.17228323221206665,-15.766308784484863,-0.4827519655227661
1684592017744591600,14.136591552734375,-0.6478567123413086,-10.427921295166016,0.5521438121795654
1684592017761464800,14.15346484375,-0.6903293132781982,-7.1886372566223145,0.9960124492645264
1684592017778338000,14.170338134765625,-1.5882359743118286,-5.779862880706787,0.906281590461731
1684592017795211300,14.187211181640626,-2.4472594261169434,-5.623133182525635,0.4085744619369507
1684592017812088800,14.2040888671875,-1.2149556875228882,-6.0125651359558105,-0.18963119387626648
1684592017828957700,14.220957763671874,1.5750755071640015,-6.908079147338867,-1.0606186389923096
1684592017845826600,14.23782666015625,3.4995031356811523,-8.522636413574219,-1.8317056894302368
1684592017862708000,14.2547080078125,3.970889091491699,-10.491929054260254,-2.5663022994995117
1684592017879577000,14.2715771484375,3.0035905838012695,-11.84566879272461,-2.750549554824829
1684592017896450300,14.2884501953125,1.4763715267181396,-11.669795989990234,-2.521436929702759
1684592017913313000,14.30531298828125,-2.3198416233062744,-9.505488395690918,-3.0520453453063965
1684592017930196200,14.3221962890625,0.059820566326379776,-8.361719131469727,-2.68534517288208
1684592017947069400,14.3390693359375,1.3142578601837158,-8.284550666809082,-2.550748825073242
1684592017963942700,14.355942626953125,0.96370929479599,-8.847461700439453,-2.5950162410736084
1684592017980816100,14.372816162109375,-0.7441678643226624,-10.037891387939453,-2.2857437133789062
1684592017997689300,14.389689453125,-1.3196417093276978,-10.48654556274414,-1.937588095664978
1684592018014561800,14.406561767578125,-0.8392825126647949,-10.110872268676758,-1.7497515678405762
1684592018031435500,14.423435546875,-1.0378868579864502,-9.44626522064209,-1.4524433612823486
1684592018048308500,14.44030859375,-0.3774677813053131,-8.72482967376709,-2.14516544342041
1684592018065181700,14.457181640625,0.7627122402191162,-8.779266357421875,-2.8528428077697754
1684592018082055000,14.474054931640625,0.5072783827781677,-9.22253704071045,-2.9688947200775146
1684592018098928000,14.49092822265625,0.21176479756832123,-9.221938133239746,-2.892324447631836
1684592018115801300,14.50780126953125,0.12921242415905,-8.896514892578125,-2.8390841484069824
1684592018132674300,14.52467431640625,0.023330021649599075,-8.781659126281738,-2.7912275791168213
1684592018149547500,14.541547607421874,-0.06699903309345245,-8.839086532592773,-2.7385854721069336
1684592018166420700,14.558420654296874,0.12502498924732208,-9.046066284179688,-2.465803623199463
1684592018183293700,14.575293701171875,0.372682124376297,-8.974879264831543,-2.4466612339019775
1684592018200167200,14.592167236328125,0.5527420043945312,-8.731410026550293,-2.5704896450042725
1684592018217040100,14.6090400390625,0.5527420043945312,-8.673981666564941,-2.723630428314209
1684592018233913300,14.625913330078125,0.5718846321105957,-8.725427627563477,-3.1788649559020996
1684592018250782700,14.64278271484375,0.9212366938591003,-8.892925262451172,-3.4277184009552
1684592018267659500,14.659659423828124,1.3369896411895752,-9.070592880249023,-3.5952160358428955
1684592018284532700,14.67653271484375,0.9367900490760803,-9.216554641723633,-3.9493536949157715
1684592018301406000,14.693406005859375,-0.1740778535604477,-9.245268821716309,-4.567898273468018
1684592018318279200,14.710279052734375,-0.0687936544418335,-9.29611587524414,-5.218746185302734
1684592018335152400,14.72715234375,1.2693923711776733,-9.868000984191895,-5.67338228225708
1684592018352025000,14.744025146484375,1.4673985242843628,-11.563913345336914,-6.369095802307129
1684592018368898600,14.760898681640626,-0.6951149702072144,-13.39442253112793,-7.358527660369873
1684592018385771800,14.777771728515624,-1.5014961957931519,-14.432908058166504,-7.71386194229126
1684592018402642200,14.79464208984375,-1.9052850008010864,-14.815759658813477,-7.164111137390137
1684592018419520800,14.811520751953125,-1.0199406147003174,-12.222537994384766,-5.581258773803711
1684592018436391200,14.82839111328125,0.12263216078281403,-10.710273742675781,-3.999603033065796
1684592018453264100,14.84526416015625,0.13639089465141296,-10.680363655090332,-2.630908489227295
1684592018470138000,14.86213818359375,-1.2059825658798218,-10.271191596984863,-2.1475582122802734
1684592018487010600,14.879010498046876,-1.428515076637268,-9.463613510131836,-1.8406788110733032
1684592018503883800,14.8958837890625,0.0526420995593071,-8.927620887756348,-1.872383713722229
1684592018520757000,14.912757080078125,0.9684949517250061,-9.007183074951172,-1.9537396430969238
1684592018537630200,14.929630126953125,1.043868899345398,-9.786046028137207,-2.0548365116119385
1684592018554503400,14.94650341796875,1.472184181213379,-10.77129077911377,-2.328814744949341
1684592018571376400,14.96337646484375,1.511067509651184,-10.923833847045898,-2.582453727722168
1684592018588249600,14.98024951171875,-2.4681966304779053,-10.515857696533203,-3.82373046875
1684592018605111800,14.99711181640625,-2.245065927505493,-10.219745635986328,-4.028914928436279
1684592018621995800,15.013995849609374,-0.6604190468788147,-9.42891788482666,-3.1752755641937256
1684592018638869000,15.030868896484375,-0.2566302418708801,-7.974679470062256,-2.2737796306610107
1684592018655742200,15.0477421875,-0.20099709928035736,-6.451648235321045,-1.6067804098129272
1684592018672615400,15.064615478515625,-0.11485548317432404,-5.464010715484619,-1.1312068700790405
1684592018689488600,15.081488525390625,-0.04007977992296219,-5.091926574707031,-0.7962117195129395
1684592018706361300,15.098361328125,0.012562318705022335,-5.121238708496094,-0.6143572330474854
1684592018723234800,15.11523486328125,0.023330021649599075,-5.504090309143066,-0.4995017349720001
1684592018740108000,15.13210791015625,-0.4145565330982208,-5.714060306549072,-0.19381862878799438
1684592018756981200,15.148981201171875,-0.5401797294616699,-5.398806095123291,0.2183450609445572
1684592018773854200,15.165854248046875,-0.6789634227752686,-5.289932727813721,0.6538388133049011
1684592018790717000,15.182717041015625,-1.2233306169509888,-6.3840508460998535,1.0923235416412354
1684592018807600400,15.199600341796875,-3.2476584911346436,-9.41336441040039,1.3657035827636719
1684592018824473600,15.2164736328125,-6.6006011962890625,-12.725628852844238,-0.33918261528015137
1684592018841347000,15.23334716796875,-10.237093925476074,-15.39482307434082,-4.2209391593933105
1684592018858220000,15.250219970703125,-11.268400192260742,-14.980864524841309,-7.633702278137207
1684592018875093200,15.26709326171875,-8.749356269836426,-11.58544921875,-7.680960655212402
1684592018891966200,15.28396630859375,-4.340580463409424,-9.843474388122559,-4.67078971862793
1684592018908839400,15.30083935546875,-2.3748764991760254,-9.181859016418457,-0.5718846321105957
1684592018925712600,15.317712646484376,-1.1264212131500244,-11.320444107055664,0.5700899958610535
1684592018942575000,15.3345751953125,0.5611169338226318,-13.343575477600098,0.8171489238739014
1684592018959458800,15.351458740234374,0.9595218896865845,-14.038092613220215,2.5393829345703125
1684592018976332000,15.36833203125,-0.5210371017456055,-12.595818519592285,4.8233323097229
1684592018993205200,15.385205322265625,-6.01675271987915,-9.932008743286133,1.8035900592803955
1684592019010067700,15.402067626953125,-3.1304101943969727,-7.529016494750977,-1.0923235416412354
1684592019026951400,15.418951416015625,2.128415822982788,-6.846463680267334,-1.5385849475860596
1684592019043824400,15.435824462890626,2.803191661834717,-6.321837425231934,-1.7868403196334839
1684592019060697900,15.45269775390625,2.7182464599609375,-6.477969169616699,-2.3084757328033447
1684592019077571000,15.469571044921874,2.6045875549316406,-7.77607536315918,-2.913261651992798
1684592019094440200,15.486440185546876,2.38983154296875,-9.967302322387695,-3.7393836975097656
1684592019111321000,15.503321044921876,0.43190449476242065,-11.641680717468262,-4.589433670043945
1684592019128190200,15.520190185546875,-5.528616905212402,-10.922636985778809,-5.591428279876709
1684592019145063400,15.5370634765625,-2.266601324081421,-9.616155624389648,-4.420739650726318
1684592019161937000,15.55393701171875,0.623330295085907,-8.399405479431152,-3.4510483741760254
1684592019178809900,15.570809814453124,-3.8530426025390625,-6.848856449127197,-2.5950162410736084
1684592019195683000,15.58768310546875,0.08255238085985184,-8.10807991027832,-2.785843849182129
1684592019212556000,15.60455615234375,3.0388846397399902,-8.812766075134277,-3.7232320308685303
1684592019229429200,15.62142919921875,1.6498512029647827,-9.787242889404297,-4.122235298156738
1684592019246302500,15.638302490234375,-0.5982056856155396,-9.399605751037598,-3.452843189239502
1684592019263175400,15.655175537109375,-0.672383189201355,-8.82652473449707,-3.088535785675049
1684592019280049000,15.672048828125,0.02153540402650833,-8.289336204528809,-2.9246275424957275
1684592019296911000,15.6889111328125,0.13459627330303192,-7.941180229187012,-2.612962245941162
1684592019313795000,15.705795166015625,-0.2470589429140091,-7.988438606262207,-2.4125633239746094
1684592019330668000,15.72266796875,-0.5545366406440735,-8.528019905090332,-2.3844478130340576
1684592019347541000,15.739541015625,-0.5186443328857422,-9.254241943359375,-2.4233310222625732
1684592019364414500,15.75641455078125,-0.4301098585128784,-9.832706451416016,-2.4335005283355713
1684592019381287700,15.77328759765625,-0.7058826684951782,-10.090533256530762,-2.2857437133789062
1684592019398160400,15.790160400390626,-0.7112665176391602,-9.923633575439453,-2.1756739616394043
1684592019415033900,15.807033935546874,-0.12502498924732208,-9.762118339538574,-2.438286304473877
1684592019431907000,15.823906982421875,0.5084748268127441,-9.495318412780762,-2.9114668369293213
1684592019448780000,15.840780029296875,0.5611169338226318,-9.479166984558105,-3.7393836975097656
1684592019465653200,15.8576533203125,0.5042873620986938,-9.626325607299805,-4.051048755645752
1684592019482526500,15.8745263671875,-0.0729810893535614,-9.488738059997559,-4.66361141204834
1684592019499399700,15.891399658203126,-0.7262216806411743,-9.489934921264648,-5.262415409088135
1684592019516273000,15.90827294921875,0.14775680005550385,-9.687342643737793,-5.6685967445373535
1684592019533145900,15.925145751953124,1.2628121376037598,-10.540982246398926,-6.032904148101807
1684592019550018800,15.942018798828125,0.7010970115661621,-11.913864135742188,-6.757331371307373
1684592019566892500,15.958892578125,-1.1611171960830688,-12.527024269104004,-7.620542049407959
1684592019583765200,15.97576513671875,-3.5192439556121826,-13.25563907623291,-7.795217990875244
1684592019600638500,15.992638427734375,-0.666999340057373,-12.138191223144531,-7.117451190948486
1684592019617511700,16.00951171875,1.1228320598602295,-10.223933219909668,-4.759324073791504
1684592019634384600,16.026384521484374,-2.630908489227295,-9.388837814331055,-3.2093734741210938
1684592019651257900,16.0432578125,-4.043272018432617,-10.429117202758789,-2.321636199951172
1684592019668130800,16.060130859375,-1.2969099283218384,-10.058828353881836,-2.8414769172668457
1684592019684992300,16.0769921875,1.2717852592468262,-9.492327690124512,-3.049652576446533
1684592019701875700,16.093875732421875,1.5780665874481201,-9.723235130310059,-2.892324447631836
1684592019718751000,16.1107509765625,1.5463616847991943,-10.210772514343262,-2.8450660705566406
1684592019735623400,16.12762353515625,1.9160526990890503,-10.708479881286621,-3.046063184738159
1684592019752496600,16.14449658203125,2.345564365386963,-10.723434448242188,-3.3619158267974854
1684592019769369900,16.161369873046876,2.2133610248565674,-9.948758125305176,-3.356531858444214
1684592019786240500,16.178240478515626,1.1066805124282837,-8.903693199157715,-3.0825538635253906
1684592019803118600,16.19511865234375,-6.848856449127197,-7.733004570007324,-4.411168575286865
1684592019819989500,16.211989501953123,-5.675775527954102,-7.674978733062744,-4.243072986602783
1684592019836862200,16.2288623046875,-1.4745769500732422,-7.498507976531982,-3.580260992050171
1684592019853735400,16.2457353515625,1.6719847917556763,-7.124031066894531,-2.5250260829925537
1684592019870608600,16.262608642578126,3.0681967735290527,-6.963712215423584,-1.7012969255447388
1684592019887481900,16.27948193359375,2.5710878372192383,-6.705287456512451,-1.2658032178878784
1684592019904355000,16.29635498046875,0.8231309652328491,-6.150152206420898,-1.0360921621322632
1684592019921228000,16.31322802734375,-0.5473581552505493,-5.845067501068115,-0.9547362327575684
1684592019938101200,16.330101318359375,-1.2484551668167114,-5.838487148284912,-0.7926225066184998
1684592019954974200,16.34697412109375,-1.563111424446106,-5.934200286865234,-0.4145565330982208
1684592019971847400,16.363847412109376,-1.8041882514953613,-6.551548480987549,0.13459627330303192
1684592019988704000,16.3807041015625,-2.9318058490753174,-8.433503150939941,1.0079765319824219
1684592020005593900,16.39759375,-3.5916268825531006,-11.6123685836792,1.7359927892684937
1684592020022467000,16.414467041015627,-4.981856822967529,-14.323436737060547,0.052043892443180084
1684592020039340000,16.431340087890625,-9.382257461547852,-14.580066680908203,-4.147359848022461
1684592020056213200,16.448213134765624,-11.532208442687988,-13.46740436553955,-6.713063716888428
1684592020073086200,16.465086181640626,-8.00518798828125,-11.656635284423828,-7.029514789581299
1684592020089959200,16.481959228515624,-3.957728624343872,-8.941978454589844,-6.081358909606934
1684592020106832400,16.498832275390626,-0.9798609018325806,-7.133004188537598,-3.3930225372314453
1684592020123705600,16.51570556640625,-0.2638086974620819,-6.299703598022461,-1.2185449600219727
1684592020140578800,16.532578857421875,0.22851456701755524,-8.839685440063477,-1.0253244638442993
1684592020157452000,16.5494521484375,1.8400806188583374,-12.047264099121094,-2.822932481765747
1684592020174325200,16.5663251953125,0.6664010882377625,-14.23131275177002,-3.4193434715270996
1684592020191198200,16.5831982421875,-6.089733600616455,-13.683356285095215,-3.7573297023773193
1684592020208071400,16.600071533203124,-6.8997039794921875,-11.793025970458984,-1.8221344947814941
1684592020224944400,16.6169443359375,0.2667997181415558,-7.887939929962158,0.5940182209014893
1684592020241817900,16.63381787109375,1.322034478187561,-5.892923831939697,0.4815555512905121
1684592020258690800,16.65069091796875,2.076371908187866,-6.02811861038208,-0.058624155819416046
1684592020275564000,16.66756396484375,3.245863914489746,-7.229315280914307,-0.8255237936973572
1684592020292437200,16.684437255859375,4.644468784332275,-8.507680892944336,-1.8167506456375122
1684592020309310500,16.701310546875,4.765904426574707,-10.135398864746094,-2.627917528152466
1684592020326180600,16.7181806640625,3.451646566390991,-11.755339622497559,-3.147160053253174
1684592020343059200,16.73505908203125,-9.259625434875488,-10.754541397094727,-4.990231513977051
1684592020359929600,16.7519296875,-7.355536937713623,-9.795618057250977,-4.715655326843262
1684592020376802800,16.768802734375,-0.7974081635475159,-9.723833084106445,-3.4677982330322266
1684592020393675800,16.78567578125,0.2763710021972656,-8.806185722351074,-2.99222469329834
1684592020410549000,16.802549072265624,-1.0103694200515747,-9.008378982543945,-2.5812573432922363
1684592020427422000,16.819421875,-0.25722843408584595,-10.071989059448242,-2.5393829345703125
1684592020444295200,16.836295166015624,1.1078768968582153,-10.25324535369873,-2.5674986839294434
1684592020461168400,16.85316845703125,1.0612168312072754,-9.498309135437012,-2.4083759784698486
1684592020478040000,16.8700400390625,0.251844584941864,-8.659625053405762,-2.1924238204956055
1684592020494916400,16.886916259765623,-0.2560320198535919,-8.11824893951416,-2.1780667304992676
1684592020511787500,16.90378759765625,-0.013160524889826775,-7.980063438415527,-2.1678972244262695
1684592020528660700,16.92066064453125,0.15972091257572174,-8.300702095031738,-2.2307088375091553
1684592020545534000,16.937533935546874,-0.23808585107326508,-8.930013656616211,-2.389233350753784
1684592020562407200,16.9544072265625,-0.8141579031944275,-9.19442081451416,-3.0939197540283203
1684592020579280400,16.9712802734375,-0.727418065071106,-9.351749420166016,-3.4002010822296143
1684592020596153300,16.9881533203125,-0.641276478767395,-9.380462646484375,-3.4097721576690674
1684592020613026600,17.005026611328127,-0.3326023519039154,-9.19561767578125,-3.2608189582824707
1684592020629899800,17.021899658203125,0.0729810893535614,-9.135198593139648,-3.0215368270874023
1684592020646773000,17.03877294921875,0.33020952343940735,-9.08853816986084,-2.89172625541687
1684592020663646000,17.05564599609375,0.5060819983482361,-8.931808471679688,-2.757728099822998
1684592020680508400,17.07250830078125,0.3044866919517517,-8.659027099609375,-2.6183462142944336
1684592020697392000,17.08939208984375,0.1698904037475586,-8.47178840637207,-2.7571299076080322
1684592020714265300,17.106265380859377,0.2548356056213379,-8.168498039245605,-3.675973892211914
1684592020731138600,17.123138671875,0.6478567123413086,-8.584251403808594,-4.049253940582275
1684592020748011800,17.14001171875,1.1180464029312134,-9.173483848571777,-4.303491592407227
1684592020764884700,17.156884765625,0.7429714202880859,-9.5533447265625,-4.677370071411133
1684592020781757400,17.17375732421875,-0.04307080805301666,-9.759725570678711,-5.271388053894043
1684592020798631000,17.190630859375,0.30987054109573364,-9.65384292602539,-5.879165172576904
1684592020815504100,17.207504150390626,1.1820544004440308,-9.464211463928223,-6.33798885345459
1684592020832377000,17.224377197265625,1.5074782371520996,-9.678967475891113,-6.979265213012695
1684592020849250300,17.241250244140623,0.44027936458587646,-9.9409818649292,-7.69830846786499
1684592020866120700,17.25812060546875,1.5236297845840454,-11.382657051086426,-6.258427619934082
1684592020882999000,17.2749990234375,2.046461582183838,-12.160325050354004,-5.526822090148926
1684592020899870000,17.291869873046874,0.15732808411121368,-13.298111915588379,-5.0362935066223145
1684592020916745000,17.308744873046876,-1.6707884073257446,-13.00798225402832,-4.12761926651001
1684592020933613800,17.32561376953125,-1.8921245336532593,-11.451451301574707,-3.2404799461364746
1684592020950478800,17.342478759765626,-2.072782516479492,-10.530214309692383,-2.5022943019866943
1684592020967362300,17.3593623046875,-2.3605196475982666,-10.278369903564453,-1.6791633367538452
1684592020984235300,17.3762353515625,-2.3509483337402344,-10.308877944946289,-1.0474581718444824
1684592021001108500,17.3931083984375,-1.5451651811599731,-10.177870750427246,-0.8219345808029175
1684592021017981700,17.409981689453126,-0.11126625537872314,-9.81954574584961,-0.6436693072319031
1684592021034855000,17.42685498046875,0.9846464991569519,-9.56052303314209,-0.45583271980285645
1684592021051728000,17.443727783203126,1.6767704486846924,-9.616155624389648,-0.2309073805809021
1684592021068600800,17.460600830078125,1.4739787578582764,-10.202995300292969,-0.389431893825531
1684592021085474000,17.47747412109375,0.29850462079048157,-10.682756423950195,-1.7976080179214478
1684592021102347300,17.49434716796875,-0.6753742098808289,-10.448260307312012,-2.606980323791504
1684592021119220200,17.51122021484375,-1.6857435703277588,-9.65384292602539,-1.8167506456375122
1684592021136093400,17.528093505859374,-2.4915266036987305,-8.650053977966309,-0.8536394834518433
1684592021152966700,17.544966552734376,-2.715853691101074,-7.5804619789123535,-0.05802594870328903
1684592021169839600,17.561839599609375,-2.4472594261169434,-6.818946361541748,0.7130611538887024
1684592021186712800,17.578712890625,-2.248655080795288,-6.439085960388184,1.441077470779419
1684592021203585800,17.595585693359375,-2.1828525066375732,-6.235097408294678,1.9920248985290527
1684592021220459300,17.612459228515625,-2.0961127281188965,-6.461219310760498,2.3700907230377197
1684592021237332200,17.629332275390624,-1.7880367040634155,-7.211967468261719,2.201396942138672
1684592021254205200,17.646205078125,-1.2783654928207397,-8.105088233947754,1.3680963516235352
1684592021271078400,17.663078369140624,-1.470389485359192,-8.770891189575195,0.26141586899757385
1684592021287951600,17.67995166015625,-2.428116798400879,-8.922835350036621,-0.8063812255859375
1684592021304824600,17.696824462890625,-2.6291139125823975,-8.718847274780273,-1.7635103464126587
1684592021321697800,17.71369775390625,-2.3192434310913086,-8.579465866088867,-2.466402053833008
1684592021338571000,17.730571044921874,-2.314457654953003,-8.549555778503418,-2.9066812992095947
1684592021355444000,17.74744384765625,-3.0490541458129883,-8.532207489013672,-3.1561331748962402
1684592021372317000,17.76431689453125,-4.125824451446533,-8.858229637145996,-3.4061830043792725
1684592021389190100,17.781190185546876,-4.575675010681152,-9.582656860351562,-3.656233072280884
1684592021406051300,17.79805126953125,-4.810770034790039,-10.461421012878418,-3.675973892211914
1684592021422937900,17.814937744140625,-5.08654260635376,-10.743773460388184,-3.150151014328003
1684592021439809500,17.8318095703125,-4.6785664558410645,-10.272985458374023,-2.627917528152466
1684592021456682800,17.848682861328125,-3.355933666229248,-10.531410217285156,-2.368894338607788
1684592021473557000,17.865556884765624,-1.5978072881698608,-12.391830444335938,-2.365305185317993
1684592021490417400,17.88241748046875,-0.3720839321613312,-13.472189903259277,-1.906481385231018
1684592021507302100,17.89930224609375,0.0849452018737793,-12.267403602600098,-0.6604190468788147
1684592021524175400,17.91617529296875,0.35114672780036926,-9.784252166748047,-0.1453639715909958
1684592021541048300,17.93304833984375,0.7405785918235779,-8.298907279968262,0.004785645287483931
1684592021557921500,17.949921630859375,0.5072783827781677,-7.223333358764648,0.06819544732570648
1684592021574794500,17.96679443359375,-0.44805604219436646,-6.967301368713379,0.3170489966869354
1684592021591667700,17.983667724609376,-1.1784651279449463,-7.77607536315918,-0.2590230405330658
1684592021608540700,18.000540771484374,0.10468599200248718,-8.877371788024902,-1.1114661693572998
1684592021625414000,18.017413818359376,1.555932879447937,-10.323833465576172,-1.8065811395645142
1684592021642287000,18.034287109375,0.6777670383453369,-11.298908233642578,-2.496910333633423
1684592021659159800,18.051159912109377,-2.3611178398132324,-11.178668975830078,-2.7427730560302734
1684592021676033300,18.068033203125,-3.6508491039276123,-10.811968803405762,-2.455634355545044
1684592021692906200,18.08490625,-1.7216359376907349,-10.145567893981934,-1.8891334533691406
1684592021709779500,18.101779541015624,0.3445664644241333,-9.254241943359375,-1.7431713342666626
1684592021726649300,18.1186494140625,1.2448660135269165,-8.95095157623291,-1.7904295921325684
1684592021743529000,18.135529052734373,1.3986048698425293,-9.22851848602295,-1.8191434144973755
1684592021760398800,18.15239892578125,1.3908281326293945,-9.56770133972168,-1.8532410860061646
1684592021777271800,18.169271728515625,1.420140266418457,-9.734601020812988,-1.9728822708129883
1684592021794147300,18.186147216796876,1.6199408769607544,-9.624530792236328,-2.231307029724121
1684592021811005000,18.2030048828125,1.6911274194717407,-9.504889488220215,-2.39401912689209
1684592021827891200,18.21989111328125,1.552343726158142,-9.361320495605469,-2.4131617546081543
1684592021844764200,18.23676416015625,1.1700903177261353,-9.235098838806152,-2.5184457302093506
1684592021861637400,18.253637451171876,0.7363911867141724,-9.276374816894531,-2.7385854721069336
1684592021878510600,18.270510498046875,0.389431893825531,-9.53779125213623,-3.050250768661499
1684592021895383800,18.2873837890625,0.04247260093688965,-9.80817985534668,-3.2853455543518066
1684592021912256500,18.304256591796875,-0.1381855010986328,-9.994221687316895,-3.266801118850708
1684592021929130000,18.3211298828125,-0.08614161610603333,-9.870393753051758,-3.13220477104187
1684592021946001400,18.33800146484375,-0.054436713457107544,-9.521639823913574,-3.1316065788269043
1684592021962877400,18.35487744140625,-0.0364905446767807,-9.277571678161621,-3.270390272140503
1684592021979749400,18.371749267578124,0.01136590726673603,-9.296713829040527,-3.2416765689849854
1684592021996622600,18.38862255859375,0.3846462368965149,-9.518050193786621,-3.1651060581207275
1684592022013495300,18.405495361328125,0.5228317379951477,-9.494122505187988,-3.256033420562744
1684592022030358300,18.422358154296877,0.3032902777194977,-9.53659439086914,-3.184248685836792
1684592022047241500,18.439241455078125,0.3517449200153351,-9.65683364868164,-3.1268210411071777
1684592022064115000,18.456114990234376,0.4325026869773865,-9.667003631591797,-3.026322364807129
1684592022080988000,18.47298779296875,0.4654040038585663,-9.476176261901855,-2.8636105060577393
1684592022097861000,18.489861083984376,0.4977070987224579,-9.30449104309082,-2.7912275791168213
1684592022114733800,18.50673388671875,0.5407779216766357,-9.261420249938965,-2.796013355255127
1684592022131607300,18.523607177734377,0.6885347366333008,-9.270991325378418,-2.8390841484069824
1684592022148480000,18.54047998046875,0.8219345808029175,-9.252447128295898,-2.93001127243042
1684592022165353200,18.557353271484374,0.8075776696205139,-9.223134994506836,-3.0352954864501953
1684592022182226700,18.574226806640624,0.6454638838768005,-9.165108680725098,-3.1932218074798584
1684592022199088600,18.591088623046875,0.5736792087554932,-9.193224906921387,-3.355933666229248
1684592022215972900,18.607972900390624,0.5694918036460876,-9.226125717163086,-3.518645763397217
1684592022232845800,18.624845703125,0.4211367964744568,-9.206384658813477,-3.638286828994751
1684592022249719000,18.641718994140625,0.4019941985607147,-9.05264663696289,-3.7531423568725586
1684592022266592000,18.658592041015623,0.36251261830329895,-8.822935104370117,-3.8057844638824463
1684592022283465200,18.67546533203125,0.39062830805778503,-8.72782039642334,-3.7196428775787354
1684592022300338400,18.69233837890625,0.3481557071208954,-8.828319549560547,-3.6287155151367188
1684592022317211600,18.709211669921874,0.4534398913383484,-8.909674644470215,-3.7435710430145264
1684592022334084600,18.726084716796876,0.1537388563156128,-9.07119083404541,-3.6526436805725098
1684592022350957600,18.74295751953125,0.0729810893535614,-9.166903495788574,-3.5814573764801025
1684592022367830800,18.759830810546877,0.10648060590028763,-9.17707347869873,-3.3373894691467285
1684592022384703700,18.776703857421875,0.22133609652519226,-9.235696792602539,-3.1411778926849365
1684592022401577000,18.793576904296874,0.11605189740657806,-9.230911254882812,-2.9976086616516113
1684592022418450000,18.810449951171876,0.11605189740657806,-9.22134017944336,-2.973680257797241
1684592022435323000,18.827322998046874,0.08733802288770676,-9.230911254882812,-2.964108943939209
1684592022452196000,18.844196044921876,0.08733802288770676,-9.226125717163086,-3.0215368270874023
1684592022469069300,18.8610693359375,0.09272187948226929,-9.287740707397461,-3.169891834259033
1684592022485942500,18.877942626953125,0.0687936544418335,-9.296713829040527,-3.308675527572632
1684592022502815700,18.894815673828123,0.06400800496339798,-9.287142753601074,-3.3469607830047607
1684592022519685400,18.911685302734377,0.01615155301988125,-9.34457015991211,-3.2033913135528564
1684592022536565200,18.928565185546876,0.01196411345154047,-9.378668785095215,-2.954537868499756
1684592022553435000,18.945434814453126,0.030508488416671753,-9.369695663452148,-2.7774689197540283
1684592022570305500,18.962305419921876,-0.0029910283628851175,-9.33141040802002,-2.743969440460205
1684592022587181000,18.97918115234375,0.12622138857841492,-9.45164966583252,-2.681756019592285
1684592022604054300,18.99605419921875,0.19322042167186737,-9.437292098999023,-2.7535407543182373
1684592022620927500,19.012927490234375,0.11665010452270508,-9.364909172058105,-2.964108943939209
1684592022637800400,19.029800537109374,0.12143574655056,-9.393025398254395,-3.1076784133911133
1684592022654673700,19.046673583984376,0.15912270545959473,-9.263813018798828,-3.208176851272583
1684592022671546600,19.063546630859374,0.14476576447486877,-9.196813583374023,-3.2273194789886475
1684592022688419600,19.080419677734376,0.17347964644432068,-9.239884376525879,-3.222533941268921
1684592022705292500,19.09729248046875,0.3068794906139374,-9.264410972595215,-3.2129626274108887
1684592022722166000,19.114166015625,0.38285163044929504,-9.202198028564453,-3.2171499729156494
1684592022739039200,19.131039306640623,0.3643072545528412,-9.211769104003906,-3.2315070629119873
1684592022755912000,19.147911865234374,0.3164508044719696,-9.254839897155762,-3.208176851272583
1684592022772785200,19.16478515625,0.3164508044719696,-9.235696792602539,-3.1405797004699707
1684592022789658400,19.181658447265626,0.38763725757598877,-9.221938133239746,-3.102294445037842
1684592022806528800,19.19852880859375,0.3690928816795349,-9.231510162353516,-3.073580741882324
1684592022823407000,19.215406982421875,0.34995031356811523,-9.259625434875488,-3.1555347442626953
1684592022840277800,19.23227783203125,0.35533416271209717,-9.360123634338379,-3.2656047344207764
1684592022857150700,19.249150634765623,0.4175475537776947,-9.393025398254395,-3.366103172302246
1684592022874011100,19.26601123046875,0.43130627274513245,-9.30748176574707,-3.3846476078033447
1684592022890888400,19.282888427734374,0.349352091550827,-9.159127235412598,-3.3272199630737305
1684592022907770000,19.29977001953125,0.38703906536102295,-9.068199157714844,-3.308077335357666
1684592022924643000,19.31664306640625,0.44446679949760437,-9.092127799987793,-3.298506021499634
1684592022941516300,19.333516357421875,0.46420758962631226,-9.120841979980469,-3.394218921661377
1684592022958389200,19.35038916015625,0.4977070987224579,-9.163912773132324,-3.456432342529297
1684592022975262700,19.3672626953125,0.5832505226135254,-9.101698875427246,-3.4851462841033936
1684592022992142000,19.38414208984375,0.6502495408058167,-9.111868858337402,-3.4995031356811523
1684592023009008600,19.401008544921876,0.5742774605751038,-9.211769104003906,-3.4947173595428467
1684592023025879000,19.417879150390625,0.38344982266426086,-9.273384094238281,-3.3996028900146484
1684592023042757400,19.43475732421875,0.34995031356811523,-9.326624870300293,-3.232105255126953
1684592023059628000,19.4516279296875,0.41216370463371277,-9.375079154968262,-3.0071799755096436
1684592023076501200,19.468501220703125,0.4217349886894226,-9.361320495605469,-2.8588249683380127
1684592023093374000,19.4853740234375,0.46002015471458435,-9.404391288757324,-2.7870402336120605
1684592023110261200,19.50226123046875,0.5461617708206177,-9.424132347106934,-2.758326292037964
1684592023127120400,19.519120361328124,0.5599204897880554,-9.357132911682129,-2.782254457473755
1684592023143993600,19.53599365234375,0.48813581466674805,-9.266205787658691,-2.8247270584106445
1684592023160866600,19.552866455078124,0.46899324655532837,-9.294321060180664,-2.815753936767578
1684592023177739800,19.56973974609375,0.4169493317604065,-9.289535522460938,-2.8109683990478516
1684592023194612700,19.58661279296875,0.3355933725833893,-9.275178909301758,-2.8827531337738037
1684592023211485700,19.603485595703123,0.34995031356811523,-9.274580955505371,-3.0311081409454346
1684592023228359000,19.62035888671875,0.48394837975502014,-9.32722282409668,-3.160320520401001
1684592023245238500,19.637238525390625,0.4983053207397461,-9.308079719543457,-3.184248685836792
1684592023262105300,19.654105224609374,0.40259242057800293,-9.279366493225098,-3.1172497272491455
1684592023278978300,19.670978271484376,0.388235479593277,-9.279366493225098,-3.0550363063812256
1684592023295851300,19.687851318359375,0.4456632137298584,-9.269794464111328,-3.1166515350341797
1684592023312727600,19.7047275390625,0.45523449778556824,-9.322437286376953,-3.2129626274108887
1684592023329594000,19.721593994140626,0.41216370463371277,-9.288339614868164,-3.2751760482788086
1684592023346470400,19.738470458984374,0.3690928816795349,-9.283554077148438,-3.294318675994873
1684592023363343600,19.755343505859376,0.3116651475429535,-9.292527198791504,-3.2751760482788086
1684592023380216800,19.772216796875,0.3164508044719696,-9.216554641723633,-3.2793633937835693
1684592023397089500,19.789089599609376,0.4019941985607147,-9.178269386291504,-3.322434186935425
1684592023413962800,19.805962646484375,0.46420758962631226,-9.159127235412598,-3.3655049800872803
1684592023430836000,19.8228359375,0.4785645306110382,-9.144769668579102,-3.370290756225586
1684592023447709200,19.839709228515623,0.49232324957847595,-9.130413055419922,-3.346362352371216
1684592023464582000,19.856581787109373,0.5018945336341858,-9.09691333770752,-3.3750762939453125
1684592023481455400,19.873455322265624,0.5210371017456055,-9.09691333770752,-3.394218921661377
1684592023498328000,19.890328125,0.49710890650749207,-9.078369140625,-3.3655049800872803
1684592023515201500,19.907201416015624,0.5258227586746216,-9.035298347473145,-3.2506494522094727
1684592023532074500,19.924074462890626,0.5587241053581238,-9.011968612670898,-3.207578659057617
1684592023548947700,19.94094775390625,0.5306084156036377,-9.145368576049805,-3.2506494522094727
1684592023565819100,19.957819091796875,0.44027936458587646,-9.192625999450684,-3.394218921661377
1684592023582695400,19.9746953125,0.4498506486415863,-9.178269386291504,-3.480360507965088
1684592023599566800,19.99156689453125,0.4498506486415863,-9.129815101623535,-3.576073408126831
1684592023616440000,20.008440185546874,0.37806597352027893,-9.100502967834473,-3.710071563720703
1684592023633313000,20.02531298828125,0.37866419553756714,-9.17707347869873,-3.7818562984466553
1684592023650186000,20.04218603515625,0.35892340540885925,-9.129216194152832,-3.8153557777404785
1684592023667059200,20.05905908203125,0.33499518036842346,-9.052047729492188,-3.9254255294799805
1684592023683932200,20.07593212890625,0.24406790733337402,-9.027522087097168,-3.9972102642059326
1684592023700805600,20.0928056640625,0.32542386651039124,-8.989834785461426,-4.001996040344238
1684592023717678600,20.1096787109375,0.4253242313861847,-9.008976936340332,-4.021138668060303
1684592023734551600,20.126551513671874,0.397208571434021,-9.090332984924316,-4.073780536651611
1684592023751424800,20.1434248046875,0.32542386651039124,-9.07119083404541,-4.006781578063965
1684592023768297700,20.160297607421874,0.49172505736351013,-8.943174362182617,-3.786641836166382
1684592023785170700,20.177170654296877,0.6203392744064331,-8.919844627380371,-3.686143398284912
1684592023802044200,20.194044189453123,0.5826523303985596,-8.924630165100098,-3.7052857875823975
1684592023818917000,20.210917236328125,0.6394818425178528,-8.905488014221191,-3.7148571014404297
1684592023835790300,20.227790283203124,0.5443671345710754,-8.919844627380371,-3.6526436805725098
1684592023852663300,20.244663330078126,0.49172505736351013,-8.85224723815918,-3.6957144737243652
1684592023869536300,20.261536376953124,0.5587241053581238,-8.891130447387695,-3.7196428775787354
1684592023886409200,20.2784091796875,0.706480860710144,-8.919844627380371,-3.7914273738861084
1684592023903282400,20.295282470703125,0.7399803996086121,-8.915059089660645,-3.844069480895996
1684592023920155600,20.31215576171875,0.6777670383453369,-8.838488578796387,-3.8919260501861572
1684592023937028900,20.32902880859375,0.6107679605484009,-8.780462265014648,-3.9631125926971436
1684592023953901600,20.345901611328124,0.6628118753433228,-8.756534576416016,-4.05403995513916
1684592023970774800,20.36277490234375,0.605384111404419,-8.727222442626953,-4.125824451446533
1684592023987647700,20.379647705078124,0.582054078578949,-8.775078773498535,-4.212564468383789
1684592024004521000,20.39652099609375,0.5772684812545776,-8.760123252868652,-4.289134502410889
1684592024021394200,20.413394287109377,0.5204389095306396,-8.82233715057373,-4.246063709259033
1684592024038267000,20.430266845703127,0.41994038224220276,-8.774480819702148,-4.274777889251709
1684592024055140400,20.447140380859373,0.36251261830329895,-8.721240043640137,-4.303491592407227
1684592024072013300,20.464013427734375,0.33858439326286316,-8.663812637329102,-4.265206336975098
1684592024088886300,20.48088623046875,0.16689938306808472,-8.711668968200684,-4.054637908935547
1684592024105761800,20.49776171875,0.10408778488636017,-8.59202766418457,-4.04985237121582
1684592024122630100,20.514630126953126,0.02751746028661728,-8.563912391662598,-3.809971809387207
1684592024139505700,20.531505615234376,0.28534409403800964,-8.655437469482422,-3.833899974822998
1684592024156379000,20.54837890625,0.2913261651992798,-8.889934539794922,-3.724428415298462
1684592024173251800,20.565251953125,0.13459627330303192,-9.05264663696289,-3.6191442012786865
1684592024190131200,20.582131103515625,-0.04247260093688965,-8.92821979522705,-3.4085757732391357
1684592024206998000,20.598998046875,0.11425728350877762,-8.809774398803711,-3.2267212867736816
1684592024223871000,20.61587109375,0.2907279431819916,-8.738588333129883,-3.183650493621826
1684592024240744200,20.632744140625,0.46719861030578613,-8.762516975402832,-3.3415768146514893
1684592024257617000,20.649616943359376,0.35832518339157104,-8.880363464355469,-3.762713670730591
1684592024274490400,20.666490478515627,0.27756741642951965,-9.041878700256348,-4.068994998931885
1684592024291354600,20.683354736328123,0.28175488114356995,-8.816953659057617,-4.193421840667725
1684592024308236500,20.700236572265624,0.31405797600746155,-8.529814720153809,-4.408177375793457
1684592024325109500,20.717109619140626,0.2189432680606842,-8.70628547668457,-4.408775806427002
1684592024341982700,20.733982666015624,1.062413215637207,-9.611968994140625,-4.639084815979004
1684592024358852400,20.750852294921874,1.8478572368621826,-11.45264720916748,-5.382654666900635
1684592024375732200,20.767732177734374,0.9098708033561707,-12.88654613494873,-6.126822471618652
1684592024392601900,20.784601806640627,0.9158528447151184,-13.16231918334961,-6.543173313140869
1684592024409475000,20.80147509765625,0.3158525824546814,-13.457234382629395,-6.371488571166992
1684592024426347800,20.81834765625,-1.189831018447876,-12.850055694580078,-4.730011940002441
1684592024443221000,20.835220947265626,-1.067797064781189,-11.297114372253418,-2.9718856811523438
1684592024460094200,20.85209423828125,-0.8823533654212952,-10.153943061828613,-1.6588243246078491
1684592024476967400,20.868967529296874,-2.4083759784698486,-10.232307434082031,-0.9415757060050964
1684592024493840100,20.885840087890625,-3.647858142852783,-10.487741470336914,-0.4737788736820221
1684592024510713300,20.90271337890625,-2.665006160736084,-10.520044326782227,-0.28175488114356995
1684592024527586600,20.919586669921873,-0.8512466549873352,-10.841280937194824,-0.23330020904541016
1684592024544459300,20.936459228515623,0.8237292170524597,-11.070992469787598,-0.1704886108636856
1684592024561332700,20.953332763671874,2.376072883605957,-11.59681510925293,-0.3284149169921875
1684592024578205700,20.970205810546876,2.9114668369293213,-11.647064208984375,-1.8885352611541748
1684592024595079000,20.987078857421874,0.8231309652328491,-10.704292297363281,-3.3481571674346924
1684592024611951900,21.003951904296876,-2.311466693878174,-10.468000411987305,-3.909274101257324
1684592024628824800,21.020824951171875,-4.744967460632324,-10.246066093444824,-3.8051862716674805
1684592024645697800,21.03769775390625,-5.438287734985352,-9.858428955078125,-3.153740167617798
1684592024662571300,21.0545712890625,-4.589433670043945,-8.866005897521973,-1.506281852722168
1684592024679444200,21.0714443359375,-3.951148271560669,-7.582854747772217,0.46779683232307434
1684592024696317200,21.088317138671876,-3.761517286300659,-7.453044414520264,1.6977076530456543
1684592024713190100,21.105190185546874,-3.459423303604126,-7.852047443389893,2.190629243850708
1684592024730066700,21.122066650390625,-3.0412776470184326,-8.560322761535645,2.15653133392334
1684592024746936300,21.138936279296875,-3.3236305713653564,-9.480961799621582,1.6767704486846924
1684592024763809500,21.1558095703125,-4.038486480712891,-9.662816047668457,0.8961120843887329
1684592024780682500,21.1726826171875,-4.862215518951416,-8.778668403625488,0.006580262444913387
1684592024797555500,21.189555419921874,-4.646861553192139,-7.734799385070801,-0.8823533654212952
1684592024814428700,21.2064287109375,-4.0528435707092285,-7.0271220207214355,-1.6618152856826782
1684592024831301600,21.223301513671874,-3.7740795612335205,-6.434898376464844,-1.7850457429885864
1684592024848174800,21.2401748046875,-3.0251259803771973,-6.52044153213501,-1.0139585733413696
1684592024865047800,21.2570478515625,-3.786641836166382,-7.0654072761535645,-0.17766708135604858
1684592024881921000,21.273921142578125,-5.673980712890625,-7.424330234527588,0.3810569941997528
1684592024898795800,21.290795654296875,-6.811169624328613,-6.948757171630859,0.9074779748916626
1684592024915665400,21.30766552734375,-6.052644729614258,-5.91924524307251,1.181456208229065
