time,seconds_elapsed,z,y,x
1682879936169797600,0.193797607421875,-1.5674800872802734,-0.585421085357666,0.7924244403839111
1682879936186679000,0.210678955078125,0.5089473724365234,-0.8167006969451904,0.9643341898918152
1682879936203543800,0.227543701171875,-0.4075202941894531,-2.50929594039917,0.11877709627151489
1682879936220417800,0.244417724609375,0.004202842712402344,-1.3729796409606934,0.4514783024787903
1682879936237296400,0.26129638671875,0.8359518051147461,-0.8578271865844727,-0.469310998916626
1682879936254168300,0.278168212890625,1.3810949325561523,-0.3976733684539795,-0.6458278894424438
1682879936271039000,0.2950390625,1.9820499420166016,-0.1507730484008789,0.6854214668273926
1682879936287911700,0.31191162109375,0.23050975799560547,-0.14186882972717285,0.2791609764099121
1682879936304781600,0.328781494140625,0.12633323669433594,-2.126875400543213,0.6009889841079712
1682879936321654300,0.345654296875,1.225632667541504,-1.6642811298370361,-0.41226696968078613
1682879936338524400,0.3625244140625,1.4242000579833984,-0.9777393341064453,-0.5378342866897583
1682879936355396600,0.379396728515625,-0.15134620666503906,-0.5918326377868652,0.4341984987258911
1682879936372267800,0.396267822265625,0.3571052551269531,-0.9550082683563232,0.5104677677154541
1682879936389139700,0.4131396484375,0.09578227996826172,-1.5710580348968506,0.8045072555541992
1682879936406010000,0.430010009765625,1.0278043746948242,-1.021256446838379,0.08305168151855469
1682879936422880000,0.4468798828125,2.255953788757324,0.08455419540405273,-0.19971561431884766
1682879936439755800,0.463755859375,1.3111200332641602,-1.0588748455047607,0.3858513832092285
1682879936456624400,0.480624267578125,0.14554071426391602,-0.79766845703125,0.6715593338012695
1682879936473496000,0.49749609375,-0.12223196029663086,-1.2316794395446777,0.2544059753417969
1682879936490377000,0.514376953125,0.886542797088623,-1.285656452178955,0.7248296737670898
1682879936507238400,0.53123828125,1.0604777336120605,-0.9668350219726562,0.6684556007385254
1682879936524111000,0.548111083984375,0.5880212783813477,-0.9344809055328369,0.5878200531005859
1682879936540981200,0.564981201171875,0.58563232421875,-0.7041659355163574,0.7349410057067871
1682879936557853400,0.581853515625,0.2537240982055664,-0.7074825763702393,0.7878198623657227
1682879936574723600,0.5987236328125,0.5225009918212891,-1.3454952239990234,1.1877193450927734
1682879936591596300,0.61559619140625,0.5295939445495605,-1.4680607318878174,1.387195110321045
1682879936608466400,0.632466552734375,0.36436033248901367,-1.5284619331359863,1.2036175727844238
1682879936625338400,0.64933837890625,0.5130863189697266,-1.1315670013427734,1.0789275169372559
1682879936642210300,0.666210205078125,0.6461572647094727,-0.8892326354980469,0.7298460006713867
1682879936659081700,0.683081787109375,0.6728177070617676,-0.7723655700683594,0.725898265838623
1682879936675951900,0.699951904296875,0.3265056610107422,-1.338733434677124,0.8915238380432129
1682879936692821000,0.716821044921875,0.007288455963134766,-1.7933673858642578,0.629483699798584
1682879936709694700,0.73369482421875,-0.1775836944580078,-1.70098876953125,0.7124238014221191
1682879936726557000,0.750556884765625,0.17943191528320312,-1.374772071838379,0.6602692604064941
1682879936743435000,0.76743505859375,0.7313327789306641,-0.6318385601043701,0.6338810920715332
1682879936760308000,0.784307861328125,0.49828433990478516,-0.8541011810302734,0.6133623123168945
1682879936777180700,0.8011806640625,0.13448476791381836,-1.488938331604004,0.662999153137207
1682879936794052900,0.818052978515625,-0.3046841621398926,-1.6829822063446045,1.025378704071045
1682879936810920400,0.83492041015625,-0.1261148452758789,-1.6149001121520996,0.9225296974182129
1682879936827798000,0.851798095703125,0.007802486419677734,-1.1609387397766113,0.4730081558227539
1682879936844665900,0.868665771484375,0.23178958892822266,-0.839867353439331,0.7476553916931152
1682879936861538600,0.88553857421875,0.5098638534545898,-0.877568244934082,0.4693593978881836
1682879936878406100,0.90240625,-0.1790313720703125,-1.413945198059082,0.5214138031005859
1682879936895284000,0.919283935546875,-0.06874322891235352,-1.5266828536987305,0.7401390075683594
1682879936912151600,0.936151611328125,0.13151264190673828,-1.248525857925415,0.6343679428100586
1682879936929024000,0.95302392578125,0.20949077606201172,-1.0170989036560059,0.7063589096069336
1682879936945892000,0.96989208984375,0.36312294006347656,-1.1439058780670166,0.508389949798584
1682879936962768400,0.986768310546875,0.3641676902770996,-1.356496810913086,0.3668384552001953
1682879936979637000,1.003636962890625,0.15996503829956055,-1.2933759689331055,0.3495941162109375
1682879936996509700,1.020509765625,0.21091222763061523,-1.1581003665924072,0.6066718101501465
1682879937013375200,1.037375244140625,0.10528898239135742,-1.2396655082702637,0.599240779876709
1682879937030252000,1.054251953125,0.11587381362915039,-1.2843518257141113,0.34116601943969727
1682879937047122400,1.071122314453125,-0.0409398078918457,-1.4997365474700928,0.5048589706420898
1682879937063994600,1.08799462890625,0.26848268508911133,-1.6078062057495117,0.20264649391174316
1682879937080847400,1.104847412109375,0.15798425674438477,-1.4267997741699219,0.5665295124053955
1682879937097737700,1.12173779296875,0.35610246658325195,-1.2989699840545654,0.49799156188964844
1682879937114608000,1.138608154296875,0.16527462005615234,-1.3567049503326416,0.41590118408203125
1682879937131479000,1.15547900390625,0.14265060424804688,-1.623581886291504,0.5597100257873535
1682879937148352300,1.172352294921875,0.2809901237487793,-1.3161897659301758,0.31836414337158203
1682879937165223000,1.189222900390625,0.09744501113891602,-1.1995890140533447,0.35997819900512695
1682879937182093300,1.20609326171875,0.1812729835510254,-1.1340675354003906,0.4439096450805664
1682879937198953700,1.22295361328125,0.20513153076171875,-1.3417596817016602,0.6740841865539551
1682879937215839200,1.239839111328125,0.44132566452026367,-1.119264841079712,0.5611772537231445
1682879937232711400,1.25671142578125,0.2615957260131836,-1.1784203052520752,0.41895008087158203
1682879937249579300,1.273579345703125,0.04605245590209961,-1.2916810512542725,0.38266468048095703
1682879937266451700,1.29045166015625,-0.05603933334350586,-1.393425703048706,0.11326169967651367
1682879937283311400,1.307311279296875,-0.09900951385498047,-1.4324939250946045,-0.08478736877441406
1682879937300199200,1.32419921875,-0.08006477355957031,-1.635737419128418,0.002315998077392578
1682879937317064400,1.341064453125,0.08498954772949219,-1.9729883670806885,-0.08649349212646484
1682879937333924000,1.357924072265625,-0.002975940704345703,-2.1370575428009033,0.2696499824523926
1682879937350807300,1.374807373046875,0.23240041732788086,-1.9083092212677002,0.20368623733520508
1682879937367666700,1.391666748046875,-0.024236202239990234,-1.660691738128662,0.4014310836791992
1682879937384539400,1.408539306640625,0.0816049575805664,-1.8551331758499146,0.282625675201416
1682879937401422300,1.42542236328125,0.07002687454223633,-1.8188267946243286,0.1122426986694336
1682879937418292500,1.44229248046875,0.025243282318115234,-2.2057650089263916,-0.45658087730407715
1682879937435154700,1.45915478515625,0.03445720672607422,-2.630002737045288,-0.6345634460449219
1682879937452032300,1.4760322265625,-0.3552083969116211,-2.975443124771118,-1.1037070751190186
1682879937468908800,1.49290869140625,-0.5147385597229004,-3.006028175354004,-0.46311378479003906
1682879937485784600,1.50978466796875,0.3950338363647461,-2.662083148956299,-0.2531108856201172
1682879937502647600,1.5266474609375,0.9282302856445312,-2.1024436950683594,-0.4834327697753906
1682879937519521000,1.54352099609375,-0.2602214813232422,-2.5977439880371094,-0.8571207523345947
1682879937536380200,1.560380126953125,-0.6039528846740723,-3.4458837509155273,-1.243016004562378
1682879937553266700,1.5772666015625,-1.0992493629455566,-4.162870407104492,-0.6312108039855957
1682879937570138400,1.594138427734375,-0.37546443939208984,-4.039615631103516,-0.29524707794189453
1682879937587006500,1.61100634765625,-0.12993526458740234,-2.6401729583740234,0.38840341567993164
1682879937603879400,1.62787939453125,-0.3326730728149414,-2.611717700958252,0.046071529388427734
1682879937620749600,1.64474951171875,-1.6153922080993652,-3.409360408782959,0.12264204025268555
1682879937637621800,1.661621826171875,-4.145207405090332,-5.440963268280029,0.665283203125
1682879937654492000,1.678491943359375,-4.892244338989258,-7.086002349853516,0.7156572341918945
1682879937671364600,1.695364501953125,-2.852484703063965,-7.498711109161377,0.1397395133972168
1682879937688218600,1.712218505859375,-0.8084568977355957,-7.519708633422852,-0.6333937644958496
1682879937705107500,1.729107421875,1.1488313674926758,-6.326901435852051,-1.3021049499511719
1682879937721977000,1.74597705078125,3.0699572563171387,-4.68121862411499,0.19279956817626953
1682879937738850600,1.7628505859375,3.441801071166992,-4.381460189819336,1.6067957878112793
1682879937755720400,1.779720458984375,3.9666144847869873,-2.6714277267456055,2.398789882659912
1682879937772592600,1.796592529296875,3.796023368835449,-1.8646116256713867,3.9663496017456055
1682879937789463000,1.813463134765625,2.7717227935791016,-2.5054149627685547,6.2910919189453125
1682879937806336800,1.830336669921875,2.8724660873413086,-1.6843156814575195,8.53632926940918
1682879937823195400,1.8471953125,4.953281879425049,1.2673487663269043,10.284147262573242
1682879937840065500,1.8640654296875,4.841701984405518,3.109177589416504,11.188385009765625
1682879937856950800,1.88095068359375,2.946605682373047,4.4149932861328125,11.047628402709961
1682879937873821200,1.8978212890625,2.45363450050354,5.622651100158691,9.074747085571289
1682879937890691300,1.91469140625,3.9635751247406006,6.80555534362793,5.860029697418213
1682879937907563800,1.931563720703125,3.813725471496582,6.507801055908203,3.035282611846924
1682879937924434200,1.94843408203125,0.9991757869720459,7.2252936363220215,0.9784064292907715
1682879937941306600,1.965306640625,-0.27610498666763306,5.5930352210998535,0.561760425567627
1682879937958174700,1.9821748046875,0.24919894337654114,3.873237133026123,-1.6320924758911133
1682879937975051800,1.9990517578125,2.0656533241271973,1.3241024017333984,-4.569421768188477
1682879937991919900,2.015919921875,3.4540867805480957,2.9652256965637207,-3.8234846591949463
1682879938008789200,2.032789306640625,3.285088300704956,6.876435279846191,3.1401495933532715
1682879938025665300,2.049665283203125,0.3471270203590393,1.5019564628601074,4.412265777587891
1682879938042535000,2.066534912109375,-3.951774835586548,2.474616050720215,3.6003403663635254
1682879938059402800,2.08340283203125,-2.2750439643859863,-4.754506587982178,2.0941739082336426
1682879938076277800,2.10027783203125,-6.493141174316406,-7.267016410827637,0.7457418441772461
1682879938093150500,2.117150390625,-3.8741533756256104,-7.307991027832031,-6.04891300201416
1682879938110017800,2.134017822265625,0.9161168336868286,-5.599286079406738,-9.777751922607422
1682879938126893000,2.15089306640625,-1.9131298065185547,-1.6726112365722656,-6.950908660888672
1682879938143763000,2.167762939453125,-2.774494171142578,-4.223097801208496,-3.4599854946136475
1682879938160624000,2.1846240234375,-3.4042229652404785,-4.230790615081787,-2.479909896850586
1682879938177506000,2.201506103515625,0.9154398441314697,-1.7902393341064453,-3.211329936981201
1682879938194376700,2.218376708984375,-0.16898465156555176,-1.3946876525878906,-4.52848482131958
1682879938211246000,2.23524609375,0.3445005416870117,2.4514312744140625,-3.544537305831909
1682879938228121300,2.252121337890625,-0.40903449058532715,5.393795013427734,-3.456238031387329
1682879938244991200,2.2689912109375,2.4514126777648926,3.7883899211883545,-2.0750303268432617
1682879938261862000,2.28586181640625,0.6473467350006104,-1.5605778694152832,-0.6876044273376465
1682879938278734000,2.302734130859375,-2.883629560470581,-2.1664323806762695,0.5032410621643066
1682879938295602700,2.319602783203125,-0.45131516456604004,-1.5247182846069336,3.5156090259552
1682879938312478700,2.336478759765625,-2.543332099914551,1.2833685874938965,2.6229310035705566
1682879938329347300,2.353347412109375,-0.19786429405212402,2.8885984420776367,4.058564186096191
1682879938346217200,2.37021728515625,-1.8377068042755127,8.075701713562012,2.5399279594421387
1682879938363085600,2.38708544921875,-1.6836023330688477,9.102065086364746,1.9570128917694092
1682879938379962600,2.403962646484375,0.17434293031692505,8.352848052978516,1.061834454536438
1682879938396833000,2.4208330078125,-0.10304805636405945,8.712308883666992,1.1733789443969727
1682879938413705000,2.437705078125,-4.183650016784668,1.0559282302856445,0.9974923133850098
1682879938430575400,2.454575439453125,-15.165608406066895,-14.292380332946777,-2.861246347427368
1682879938447449600,2.47144970703125,-31.457672119140625,-12.739258766174316,-8.799726486206055
1682879938464316700,2.488316650390625,-13.259567260742188,-11.824061393737793,-10.991634368896484
1682879938481190400,2.5051904296875,-6.622267723083496,-13.226765632629395,-8.080408096313477
1682879938498060800,2.522060791015625,-1.4633121490478516,-7.688390731811523,-1.5693891048431396
1682879938514933500,2.53893359375,11.53874683380127,1.6581058502197266,2.0114259719848633
1682879938531803600,2.5558037109375,9.315818786621094,5.348600387573242,1.481677532196045
1682879938548676400,2.57267626953125,1.99746572971344,6.805088043212891,1.0628899335861206
1682879938565546500,2.58954638671875,0.848878026008606,7.782118320465088,1.1364021301269531
1682879938582418700,2.606418701171875,-0.11471676826477051,6.75534725189209,0.9359433650970459
1682879938599289000,2.6232890625,-1.304472804069519,3.8862733840942383,0.4092116355895996
1682879938616160800,2.640160888671875,-3.0473527908325195,0.9142532348632812,-0.19054174423217773
1682879938633032400,2.657032470703125,-3.8111939430236816,-0.9102210998535156,-0.5244221687316895
1682879938649904400,2.673904296875,-1.4555490016937256,-0.318817138671875,-1.0106196403503418
1682879938666774500,2.6907744140625,0.456856369972229,0.18420791625976562,-1.2841682434082031
1682879938683647200,2.707647216796875,1.458296537399292,0.5466108322143555,-1.5525925159454346
1682879938700508700,2.7245087890625,2.008375883102417,1.06968355178833,-1.6263976097106934
1682879938717386800,2.74138671875,1.9404585361480713,1.2137608528137207,-1.4407744407653809
1682879938734260500,2.758260498046875,1.4833402633666992,0.7899351119995117,-0.8055729866027832
1682879938751132700,2.775132568359375,-0.7572978734970093,-0.3984527587890625,0.0045909881591796875
1682879938768010500,2.792010498046875,-5.879138946533203,-0.272613525390625,-0.00032520294189453125
1682879938784875800,2.808875732421875,-5.915594577789307,-1.1907873153686523,-0.5704207420349121
1682879938801745700,2.82574560546875,-2.904338836669922,-0.19469070434570312,-1.0295782089233398
1682879938818607600,2.842607666015625,-1.029895305633545,-0.1724090576171875,0.040587425231933594
1682879938835488300,2.85948828125,-0.926946759223938,-0.0440521240234375,1.2465691566467285
1682879938852356000,2.876356201171875,-0.20676076412200928,1.1160917282104492,1.9104831218719482
1682879938869230800,2.89323095703125,-0.8527336120605469,1.7563152313232422,1.8448724746704102
1682879938886106600,2.910106689453125,-1.8831219673156738,0.40383195877075195,1.7675271034240723
1682879938902971100,2.92697119140625,-2.2012574672698975,-0.5193972587585449,0.7843198776245117
1682879938919846100,2.94384619140625,-1.1874651908874512,-0.6803708076477051,0.011472702026367188
1682879938936716500,2.960716552734375,4.74009895324707,0.09486770629882812,0.24733495712280273
1682879938953589000,2.977589111328125,3.8167691230773926,0.19654321670532227,1.7252163887023926
1682879938970449700,2.99444970703125,-0.30898022651672363,0.602506160736084,1.7810893058776855
1682879938987331600,3.01133154296875,-0.7094430923461914,0.6212296485900879,1.3459296226501465
1682879939004202200,3.0282021484375,-0.6753726005554199,-0.370358943939209,0.5984525680541992
1682879939021074700,3.04507470703125,-0.9237699508666992,-1.245995044708252,-0.6985683441162109
1682879939037944800,3.06194482421875,-0.5565857887268066,-1.7578392028808594,-1.4569034576416016
1682879939054814200,3.078814208984375,1.0689659118652344,-1.2521147727966309,-1.1383233070373535
1682879939071679500,3.095679443359375,0.47164154052734375,-0.45173025131225586,0.34549665451049805
1682879939088560400,3.112560302734375,-1.2224817276000977,0.1255321502685547,1.272228717803955
1682879939105430500,3.129430419921875,-1.9308180809020996,0.4838738441467285,1.3696355819702148
1682879939122302700,3.146302734375,-1.531236171722412,0.1966238021850586,0.7830634117126465
1682879939139173000,3.163173095703125,-0.5338125228881836,-0.43697643280029297,0.08794212341308594
1682879939156045800,3.1800458984375,-0.4108400344848633,-0.49527740478515625,-0.2249002456665039
1682879939172916200,3.196916259765625,-1.3947303295135498,-0.2944455146789551,-0.3213777542114258
1682879939189788400,3.213788330078125,-1.4528212547302246,0.05866241455078125,-0.17495393753051758
1682879939206658600,3.230658447265625,-0.8814959526062012,0.6026167869567871,-0.08551502227783203
1682879939223531000,3.247531005859375,-0.1901388168334961,1.330634593963623,-0.04383707046508789
1682879939240398000,3.264398193359375,0.5089747905731201,1.2503409385681152,0.2352914810180664
1682879939257274000,3.281274169921875,0.11567926406860352,1.2429513931274414,0.4797477722167969
1682879939274144000,3.29814404296875,-1.1103973388671875,1.2037444114685059,0.8706989288330078
1682879939291016400,3.315016357421875,-0.9989018440246582,1.4697442054748535,1.6048002243041992
1682879939307876600,3.331876708984375,-0.12021589279174805,1.416351318359375,2.321446180343628
1682879939324759300,3.34875927734375,-0.011225223541259766,1.0838685035705566,2.517774820327759
1682879939341630000,3.3656298828125,-0.49927663803100586,0.8357954025268555,1.952301263809204
1682879939358502400,3.38250244140625,-0.26501989364624023,0.8423166275024414,1.0814075469970703
1682879939375372500,3.39937255859375,0.28519153594970703,1.3595938682556152,0.39424610137939453
1682879939392244200,3.416244140625,0.9046230316162109,1.629948616027832,0.43976449966430664
1682879939409105400,3.43310546875,1.316861629486084,1.9269070625305176,0.5748348236083984
1682879939425973200,3.44997314453125,1.725494146347046,1.7760748863220215,0.760657787322998
1682879939442855400,3.46685546875,1.9680325984954834,1.1407747268676758,1.0013818740844727
1682879939459733200,3.483733154296875,1.8379578590393066,0.9627666473388672,1.2020092010498047
1682879939476598300,3.500598388671875,0.46158790588378906,1.5822057723999023,1.3335456848144531
1682879939493476000,3.51747607421875,0.12546825408935547,2.2584104537963867,1.6789681911468506
1682879939510330000,3.534330078125,-0.502047061920166,2.7945778369903564,1.1654613018035889
1682879939527218400,3.551218505859375,-1.6215934753417969,2.2886533737182617,-0.32856035232543945
1682879939544072000,3.568072021484375,-2.0933094024658203,0.21326065063476562,-2.7627506256103516
1682879939560963000,3.584963134765625,-2.2827086448669434,-0.46431446075439453,-5.194619655609131
1682879939577829400,3.601829345703125,-2.471567153930664,0.38640880584716797,-6.595306396484375
1682879939594701800,3.618701904296875,-2.7261810302734375,1.2806262969970703,-5.928622245788574
1682879939611572000,3.635572021484375,-2.8681159019470215,1.9353389739990234,-3.833634853363037
1682879939628444200,3.652444091796875,-2.142155647277832,1.8247222900390625,-0.9780764579772949
1682879939645312000,3.66931201171875,-1.9635438919067383,-0.18859434127807617,1.4655673503875732
1682879939662178800,3.6861787109375,-2.1135826110839844,-2.870339870452881,2.83144474029541
1682879939679057700,3.7030576171875,-3.1041970252990723,-4.286660194396973,2.7373390197753906
1682879939695927300,3.71992724609375,-4.5919189453125,-4.375199317932129,1.2517435550689697
1682879939712802600,3.736802490234375,-4.52101469039917,-4.157759666442871,-1.0648651123046875
1682879939729673000,3.7536728515625,-1.4507055282592773,-3.372241973876953,-2.9938302040100098
1682879939746542800,3.77054296875,0.6732563972473145,-1.85418701171875,-3.381000518798828
1682879939763404800,3.78740478515625,-0.8951725959777832,-0.39566802978515625,-2.722724437713623
1682879939780275200,3.804275146484375,-2.2912983894348145,0.4874749183654785,-1.8294496536254883
1682879939797158700,3.82115869140625,-2.220486640930176,0.8649444580078125,-1.15095853805542
1682879939814028500,3.838028564453125,-1.8738980293273926,1.0201711654663086,-1.3387656211853027
1682879939830904600,3.854904541015625,-0.9462699890136719,0.7482218742370605,-1.7643966674804688
1682879939847767300,3.871767333984375,0.7372522354125977,0.18101167678833008,-1.7169585227966309
1682879939864644000,3.88864404296875,1.959615707397461,-0.31646013259887695,-1.1093883514404297
1682879939881514200,3.90551416015625,2.3211185932159424,-0.18886899948120117,0.008603572845458984
1682879939898386400,3.922386474609375,2.2276432514190674,0.8750972747802734,1.2302303314208984
1682879939915256800,3.9392568359375,2.6218132972717285,2.002443552017212,2.6575350761413574
1682879939932129300,3.95612939453125,3.150604724884033,2.546285629272461,4.033641338348389
1682879939949000000,3.973,2.6071054935455322,3.404590606689453,5.12893533706665
1682879939965872400,3.989872314453125,1.4136297702789307,4.2145233154296875,5.779797554016113
1682879939982739700,4.00673974609375,-0.5640060901641846,4.596181392669678,5.708492279052734
1682879939999612200,4.023612060546875,-3.22834849357605,4.726741790771484,5.320849895477295
1682879940016485400,4.0404853515625,-5.363636493682861,4.442409515380859,5.099544525146484
1682879940033360400,4.0573603515625,-5.888318061828613,3.461122512817383,4.5629658699035645
1682879940050236000,4.07423583984375,-1.9501608610153198,1.633366584777832,2.3806939125061035
1682879940067101700,4.091101806640625,-2.79079008102417,1.0680937767028809,2.0470967292785645
1682879940083970000,4.107969970703125,-5.319458961486816,2.0521063804626465,3.742288112640381
1682879940100833000,4.1248330078125,-5.642624378204346,2.504274845123291,5.294914245605469
1682879940117709000,4.141708984375,-4.861263275146484,1.8324964046478271,5.48905086517334
1682879940134575400,4.158575439453125,-4.570117950439453,0.634056806564331,4.4621992111206055
1682879940151456000,4.1754560546875,-4.979801177978516,-0.46358633041381836,2.702995777130127
1682879940168329200,4.1923291015625,-4.891828536987305,-1.3060765266418457,0.7086925506591797
1682879940185201400,4.209201416015625,-3.8392276763916016,-2.505197525024414,-1.102442741394043
1682879940202067200,4.226067138671875,-1.2761585712432861,-3.8318190574645996,-2.5209693908691406
1682879940218944500,4.242944580078125,3.3192882537841797,-4.104676246643066,-2.950429916381836
1682879940235814100,4.259814208984375,6.277713775634766,-3.1591596603393555,-2.3237791061401367
1682879940252674300,4.27667431640625,5.944734573364258,-0.8050780296325684,-1.2431745529174805
1682879940269557000,4.293556884765625,4.315732479095459,1.1244347095489502,-0.6887006759643555
1682879940286428000,4.310427978515625,2.1461234092712402,1.6548497676849365,-1.505162239074707
1682879940303299800,4.3272998046875,-0.5696773529052734,0.8112533092498779,-4.436121940612793
1682879940320160000,4.344159912109375,-4.309637069702148,1.302393913269043,-8.429814338684082
1682879940337042700,4.361042724609375,-4.7669358253479,2.6227755546569824,-10.579618453979492
1682879940353912800,4.377912841796875,5.045848369598389,-6.118405342102051,-15.313800811767578
1682879940370785500,4.39478564453125,-1.3368520736694336,9.865760803222656,-2.185725688934326
1682879940387656200,4.41165625,2.58996319770813,3.9094858169555664,0.03761148452758789
1682879940404515800,4.428515869140625,-0.5454845428466797,5.030439376831055,1.77606201171875
1682879940421389000,4.44538916015625,-2.8822526931762695,1.2754991054534912,-0.5081191062927246
1682879940438273000,4.46227294921875,-6.234878063201904,0.8309357166290283,-0.4311709403991699
1682879940455141400,4.479141357421875,-5.104434013366699,0.7449525594711304,0.04579639434814453
1682879940471998500,4.49599853515625,-2.5431504249572754,0.9667987823486328,0.41086292266845703
1682879940488885200,4.51288525390625,-0.9490094184875488,0.7021851539611816,0.343808650970459
1682879940505756700,4.529756591796875,-0.47800731658935547,0.31455862522125244,0.1637716293334961
1682879940522627300,4.54662744140625,-0.4363737106323242,-0.09137141704559326,-0.18854522705078125
1682879940539500000,4.5635,-0.35126781463623047,-0.1887892484664917,-0.3712329864501953
1682879940556367000,4.5803671875,-0.5970420837402344,-0.38796675205230713,-0.5025348663330078
1682879940573245000,4.597244873046875,-0.44233179092407227,-0.10388660430908203,-0.39749717712402344
1682879940590105600,4.614105712890625,0.211395263671875,0.1719679832458496,-0.11356449127197266
1682879940606985000,4.63098486328125,0.624854564666748,0.42557597160339355,0.1199483871459961
1682879940623852800,4.647852783203125,0.22734594345092773,0.633936882019043,0.2161555290222168
1682879940640720000,4.664719970703125,-0.4322352409362793,0.4823739528656006,0.5755348205566406
1682879940657598500,4.681598388671875,-1.1654696464538574,0.4305528402328491,0.7781887054443359
1682879940674468000,4.698468017578125,-1.6948204040527344,0.8570603728294373,0.5158953666687012
1682879940691343600,4.715343505859375,-2.212836265563965,1.3521543741226196,0.012843132019042969
1682879940708213500,4.732213623046875,-2.2248334884643555,0.986131489276886,0.13645553588867188
1682879940725081600,4.74908154296875,-1.522080421447754,0.19885295629501343,0.4875011444091797
1682879940741959200,4.765959228515625,-1.0099730491638184,-0.1459646224975586,0.3972740173339844
1682879940758826800,4.78282666015625,-0.5497617721557617,0.7265722751617432,0.6063323020935059
1682879940775697000,4.79969677734375,-0.7550830841064453,0.8174344897270203,-0.006705284118652344
1682879940792572400,4.816572509765625,-1.070356845855713,0.885443925857544,-0.8320102691650391
1682879940809442000,4.833442138671875,-0.7816262245178223,0.7446805834770203,-1.16862154006958
1682879940826310000,4.850309814453125,-0.3961515426635742,0.2359689474105835,-1.1254010200500488
1682879940843191300,4.86719140625,-0.3628058433532715,-0.4485892057418823,-1.1143074035644531
1682879940860055300,4.88405517578125,-0.6396350860595703,-0.9417812824249268,-1.317455768585205
1682879940876925200,4.90092529296875,-0.7836017608642578,-0.8054492473602295,-1.555309772491455
1682879940893800700,4.91780078125,-0.7609710693359375,-0.27469539642333984,-1.577223777770996
1682879940910670600,4.934670654296875,-1.0550537109375,0.42437243461608887,-1.767819881439209
1682879940927538000,4.951537841796875,-0.9306468963623047,0.724278450012207,-2.3505945205688477
1682879940944415700,4.968415771484375,-0.7071499824523926,1.1297922134399414,-3.053834915161133
1682879940961283800,4.985283935546875,-0.32172250747680664,1.5897822380065918,-3.4264392852783203
1682879940978155800,5.00215576171875,-0.3113250732421875,1.9652507305145264,-2.38956880569458
1682879940995026700,5.019026611328125,-0.8813223838806152,2.0761425495147705,-0.9563183784484863
1682879941011899000,5.03589892578125,-2.0372724533081055,1.3964297771453857,0.08523178100585938
1682879941028769300,5.052769287109375,-3.1446146965026855,0.6286332607269287,0.7675719261169434
1682879941045641500,5.069641357421875,-3.418215751647949,0.1551957130432129,1.0857152938842773
1682879941062511900,5.086511962890625,-2.0121846199035645,0.03997540473937988,1.2462892532348633
1682879941079384800,5.103384765625,-0.044893741607666016,0.28600144386291504,1.709017276763916
1682879941096252400,5.12025244140625,1.5484495162963867,0.9807178974151611,2.6092567443847656
1682879941113130000,5.1371298828125,2.3507118225097656,1.9477980136871338,3.5214006900787354
1682879941129998000,5.153998046875,2.626397132873535,2.7101569175720215,4.132120609283447
1682879941146870500,5.17087060546875,2.6586759090423584,3.305875778198242,4.1851606369018555
1682879941163740400,5.187740478515625,1.6640524864196777,3.644139051437378,3.614147186279297
1682879941180602600,5.2046025390625,0.7939467430114746,3.814350128173828,2.996570587158203
1682879941197465300,5.22146533203125,1.0345573425292969,4.234700679779053,2.9861741065979004
1682879941214356000,5.23835595703125,1.6758811473846436,4.377390384674072,3.598814010620117
1682879941231226000,5.25522607421875,2.0143468379974365,3.8892300128936768,3.9256772994995117
1682879941248099000,5.27209912109375,2.029916763305664,2.878060817718506,3.4977855682373047
1682879941264958700,5.288958740234375,1.8260700702667236,1.8230714797973633,2.8084659576416016
1682879941281850600,5.3058505859375,1.2283287048339844,1.0225977897644043,2.128596782684326
1682879941298708500,5.32270849609375,0.3476572036743164,0.27295947074890137,1.4910345077514648
1682879941315584000,5.339583984375,-0.3686351776123047,-0.48371148109436035,1.001861572265625
1682879941332454400,5.356454345703125,-0.914762020111084,-1.0068342685699463,0.6191511154174805
1682879941349327000,5.3733271484375,-1.4446191787719727,-1.0254449844360352,0.32526636123657227
1682879941366194700,5.390194580078125,-1.7059988975524902,-0.3507218360900879,0.3137931823730469
1682879941383072500,5.407072509765625,-1.9382929801940918,0.5143160820007324,0.05986976623535156
1682879941399940000,5.423940185546875,-2.287443161010742,0.7490694522857666,-0.6288971900939941
1682879941416812500,5.4408125,9.244604110717773,-15.870002746582031,-13.880655288696289
1682879941433678800,5.457678955078125,-4.934909343719482,7.474109649658203,0.5817742347717285
1682879941450567700,5.474567626953125,-2.514298915863037,0.599575400352478,-2.4314279556274414
1682879941467426000,5.491426025390625,-1.1779160499572754,-0.7564387321472168,-2.6613998413085938
1682879941484307500,5.508307373046875,-1.9110736846923828,0.5932373404502869,-0.9157819747924805
1682879941501165600,5.52516552734375,-2.1022539138793945,0.5514137148857117,-0.2594642639160156
1682879941518043000,5.54204296875,-1.8130922317504883,0.6656929850578308,-0.10956716537475586
1682879941534902800,5.55890283203125,-1.3150734901428223,0.8541018962860107,-0.2906155586242676
1682879941551783700,5.57578369140625,-0.8507857322692871,0.4651567339897156,-0.39755821228027344
1682879941568654600,5.592654541015625,-0.9511551856994629,0.13527941703796387,-0.7310738563537598
1682879941585526800,5.60952685546875,-1.4084391593933105,-0.15640908479690552,-0.7406892776489258
1682879941602397400,5.6263974609375,-2.5246663093566895,0.05041635036468506,-1.127140998840332
1682879941619269600,5.64326953125,-2.2359657287597656,1.306771159172058,0.0004048347473144531
1682879941636139000,5.660138916015625,-2.065478801727295,0.8049551248550415,0.0035152435302734375
1682879941653013200,5.67701318359375,-1.9648056030273438,0.33733201026916504,-0.4597759246826172
1682879941669883000,5.6938828125,-1.4150390625,-0.1259136199951172,-0.465517520904541
1682879941686757600,5.710757568359375,-0.9465694427490234,-0.4451671838760376,-0.19515752792358398
1682879941703623400,5.72762353515625,-0.8525114059448242,-0.4594380855560303,-0.05336809158325195
1682879941720489200,5.7444892578125,-1.1498932838439941,-0.20403790473937988,-0.20856952667236328
1682879941737368600,5.76136865234375,-1.5585031509399414,0.21196186542510986,-0.3757820129394531
1682879941754244600,5.77824462890625,-2.3754019737243652,0.544130802154541,-0.6149206161499023
1682879941771111400,5.795111328125,-2.6281933784484863,0.5871109962463379,-0.9223213195800781
1682879941787984000,5.81198388671875,-2.174304962158203,0.19313430786132812,-1.6315698623657227
1682879941804854500,5.8288544921875,-1.219146728515625,-0.05187344551086426,-3.1376585960388184
1682879941821726700,5.845726806640625,-0.44289207458496094,1.6298048496246338,-3.659803867340088
1682879941838597000,5.86259716796875,-0.7461786270141602,2.6003599166870117,-1.9609136581420898
1682879941855466800,5.879466796875,-0.3170170783996582,1.8168866634368896,-0.9419913291931152
1682879941872342300,5.89634228515625,-0.9722943305969238,1.0608611106872559,-1.8476624488830566
1682879941889212400,5.91321240234375,-0.8688902854919434,0.4635481834411621,-2.2263431549072266
1682879941906079700,5.930079833984375,0.5277900695800781,0.5046746730804443,-1.6496381759643555
1682879941922958600,5.94695849609375,1.3565731048583984,0.4570777416229248,-0.473783016204834
1682879941939825400,5.963825439453125,1.4746828079223633,0.43497514724731445,0.49541616439819336
1682879941956696300,5.9806962890625,1.4555408954620361,0.41672253608703613,1.3232827186584473
1682879941973561900,5.997561767578125,1.6334943771362305,0.644780158996582,2.1326589584350586
1682879941990430200,6.01443017578125,1.9595749378204346,1.2650783061981201,2.929257392883301
1682879942007308800,6.031308837890625,1.956420660018921,2.1147186756134033,3.5693204402923584
1682879942024180700,6.0481806640625,1.5662240982055664,2.8740382194519043,4.00042724609375
1682879942041054500,6.065054443359375,0.975318431854248,3.376032829284668,4.106276512145996
1682879942057924400,6.08192431640625,0.4888434410095215,3.5556421279907227,3.9339709281921387
1682879942074799900,6.0987998046875,0.5909295082092285,3.4012038707733154,3.7619364261627197
1682879942091669500,6.11566943359375,0.9666323661804199,2.748971700668335,3.7606332302093506
1682879942108537300,6.132537353515625,1.2623138427734375,1.7747423648834229,3.440572500228882
1682879942125415000,6.149414794921875,1.6576194763183594,1.1351418495178223,3.043400764465332
1682879942142282800,6.16628271484375,1.7071783542633057,1.062866449356079,2.686542510986328
1682879942159155700,6.18315576171875,1.1965975761413574,1.2193329334259033,2.3016514778137207
1682879942176023300,6.200023193359375,0.6177144050598145,1.0524351596832275,1.8269319534301758
1682879942192900600,6.216900634765625,0.22658252716064453,0.6675779819488525,1.2490873336791992
1682879942209768400,6.2337685546875,-0.07413196563720703,0.25048327445983887,0.7207379341125488
1682879942226641000,6.250640869140625,-0.2901325225830078,-0.12696003913879395,0.36231327056884766
1682879942243511600,6.267511474609375,-0.41232824325561523,-0.4139688014984131,0.0722188949584961
1682879942260377300,6.28437744140625,-0.841310977935791,-0.466782808303833,-0.48751354217529297
1682879942277254400,6.30125439453125,-1.6400842666625977,-0.3617851734161377,-1.1498641967773438
1682879942294124000,6.3181240234375,-1.8720622062683105,-0.08005070686340332,-1.40077543258667
1682879942310999600,6.33499951171875,-0.9451541900634766,0.3077521324157715,-0.8766541481018066
1682879942327869400,6.351869384765625,-0.36312055587768555,0.008969306945800781,-0.24323511123657227
1682879942344739800,6.36873974609375,-0.9660005569458008,-0.584784746170044,-0.5476865768432617
1682879942361612300,6.3856123046875,-1.9342937469482422,-0.8229992389678955,-0.8504343032836914
1682879942378472200,6.40247216796875,-2.042065143585205,-0.053462982177734375,-0.652491569519043
1682879942395355400,6.41935546875,-1.9874329566955566,0.7214030027389526,-0.6172189712524414
1682879942412225500,6.4362255859375,0.19716501235961914,-2.0828146934509277,-3.170407295227051
1682879942429098200,6.45309814453125,-2.1848506927490234,4.641617774963379,-1.1641087532043457
1682879942445971500,6.469971435546875,-0.1772623062133789,-0.3693351745605469,-2.185779571533203
1682879942462837800,6.486837646484375,-0.581510066986084,0.5185706615447998,-1.0616083145141602
1682879942479711200,6.503711181640625,-2.1285195350646973,0.08201467990875244,-0.6738762855529785
1682879942496584000,6.520583984375,-2.3906054496765137,-0.2309553623199463,-0.5297145843505859
1682879942513454300,6.537454345703125,-1.725111961364746,0.24684500694274902,-0.7210049629211426
1682879942530333700,6.554333740234375,-2.281480312347412,-0.32431507110595703,-1.27239990234375
1682879942547197200,6.571197265625,-2.1565284729003906,-0.9892597198486328,-1.239428997039795
1682879942564069400,6.5880693359375,-1.660170078277588,-1.1943774223327637,-0.8081564903259277
1682879942580940000,6.60493994140625,-1.3926877975463867,-0.8399868011474609,-0.9898691177368164
1682879942597812700,6.621812744140625,-1.607710361480713,0.3341209888458252,-1.9577279090881348
1682879942614683400,6.638683349609375,-1.9759674072265625,1.5074622631072998,-2.426901340484619
1682879942631555300,6.655555419921875,-1.3520102500915527,1.7062997817993164,-2.191281318664551
1682879942648426000,6.672426025390625,-0.10673856735229492,1.435509443283081,-1.709268569946289
1682879942665298000,6.6892978515625,0.1778244972229004,1.255907416343689,-1.7278766632080078
1682879942682168600,6.70616845703125,-0.012796878814697266,0.9018659591674805,-1.9302363395690918
1682879942699041000,6.723041015625,-0.23249006271362305,0.5065686702728271,-1.7389945983886719
1682879942715906000,6.739906005859375,-0.10197687149047852,0.4491724967956543,-1.305257797241211
1682879942732781800,6.75678173828125,0.04167032241821289,0.352952241897583,-0.931736946105957
1682879942749654300,6.773654296875,-0.1057591438293457,0.09673333168029785,-0.9714140892028809
1682879942766514000,6.790513916015625,-0.14887714385986328,-0.03278350830078125,-1.0230283737182617
1682879942783400000,6.80739990234375,-0.1791090965270996,0.2509763240814209,-0.6836891174316406
1682879942800269600,6.82426953125,-0.6671276092529297,0.6583311557769775,-0.045171260833740234
1682879942817136400,6.841136474609375,-0.9506020545959473,0.8529407978057861,0.7270669937133789
1682879942834012400,6.858012451171875,-0.6504411697387695,1.0864920616149902,1.4226617813110352
1682879942850882800,6.8748828125,-0.18726348876953125,1.5292177200317383,1.9249053001403809
1682879942867752400,6.89175244140625,0.3840494155883789,1.8395029306411743,2.3195128440856934
1682879942884629000,6.90862890625,1.2533321380615234,1.9171525239944458,2.677783489227295
1682879942901498400,6.925498291015625,2.245035409927368,1.989078402519226,3.036766529083252
1682879942918368800,6.94236865234375,2.9659996032714844,2.1595425605773926,3.5100491046905518
1682879942935241000,6.959240966796875,3.205716133117676,2.5866916179656982,4.0660295486450195
1682879942952111600,6.976111572265625,3.173650026321411,2.9476871490478516,4.42362117767334
1682879942968984000,6.992984130859375,2.828342914581299,2.9122066497802734,4.301578521728516
1682879942985854700,7.009854736328125,1.9449050426483154,2.578859806060791,3.3332138061523438
1682879943002727200,7.02672705078125,0.8343505859375,2.038970947265625,2.4111156463623047
1682879943019597300,7.043597412109375,0.7173342704772949,1.7702441215515137,2.254380226135254
1682879943036467200,7.06046728515625,1.676344871520996,1.4737553596496582,2.75101900100708
1682879943053342700,7.0773427734375,2.282374143600464,0.9819421768188477,3.0071568489074707
1682879943070203100,7.094203125,1.9395766258239746,0.4339416027069092,2.9563989639282227
1682879943087083500,7.11108349609375,0.6926655769348145,-0.1263132095336914,2.3978381156921387
1682879943103955700,7.127955810546875,-0.9247627258300781,-0.8132960796356201,1.4018058776855469
1682879943120826400,7.144826416015625,-1.880030632019043,-1.450911283493042,0.29283714294433594
1682879943137698800,7.16169873046875,-2.3183250427246094,-1.3572843074798584,-0.7806148529052734
1682879943154568700,7.178568603515625,-2.774456024169922,-0.4635639190673828,-1.3942508697509766
1682879943171437000,7.19543701171875,-2.584606170654297,0.49945926666259766,-1.7312793731689453
1682879943188312000,7.21231201171875,-1.7186188697814941,0.8226542472839355,-1.982302188873291
1682879943205184500,7.2291845703125,-1.0958971977233887,0.988055944442749,-1.9877500534057617
1682879943222054700,7.2460546875,-0.7846822738647461,1.0064616203308105,-2.1497058868408203
1682879943238927600,7.262927734375,-0.24993562698364258,-0.16906166076660156,-2.836700439453125
1682879943255797800,7.2797978515625,-0.8409867286682129,5.278642654418945,-2.0855021476745605
1682879943272670000,7.296669921875,0.4690113067626953,-1.0426034927368164,-1.7521677017211914
1682879943289540400,7.313540283203125,-1.9725737571716309,1.3096263408660889,-0.13322734832763672
1682879943306413300,7.330413330078125,-2.308849334716797,0.12696349620819092,-0.6826953887939453
1682879943323283500,7.347283447265625,-2.2014904022216797,0.1829591989517212,-0.2351546287536621
1682879943340145000,7.364144775390625,-2.2310142517089844,0.3005247116088867,-0.08078575134277344
1682879943357027000,7.381027099609375,-2.091881275177002,0.33138787746429443,-0.2109360694885254
1682879943373898800,7.397898681640625,-1.918734073638916,0.29947900772094727,-0.47040748596191406
1682879943390769200,7.41476904296875,-1.60595703125,0.25666284561157227,-0.7921676635742188
1682879943407641600,7.4316416015625,-1.5677838325500488,1.0095651149749756,-0.7295370101928711
1682879943424512300,7.44851220703125,-2.456906318664551,0.7660171389579773,-0.982048511505127
1682879943441382100,7.465382080078125,-2.682602882385254,0.010961413383483887,-1.2136950492858887
1682879943458257700,7.482257568359375,-2.11287260055542,-0.6852219104766846,-1.2011394500732422
1682879943475127800,7.4991279296875,-1.7015018463134766,-1.1361197233200073,-0.9086198806762695
1682879943491998000,7.515998046875,-1.5951743125915527,-1.227139949798584,-0.8260493278503418
1682879943508870400,7.532870361328125,-1.5991172790527344,-1.046919345855713,-1.519242763519287
1682879943525740800,7.54974072265625,-1.4429230690002441,-0.2688124179840088,-2.841914176940918
1682879943542613500,7.566613525390625,-0.7672996520996094,1.4375135898590088,-3.46462345123291
1682879943559484000,7.58348388671875,-0.9032630920410156,2.630847215652466,-2.7787070274353027
1682879943576354000,7.60035400390625,-0.5111546516418457,2.5550875663757324,-1.7631855010986328
1682879943593216800,7.617216796875,0.3372058868408203,1.567091703414917,-1.464719295501709
1682879943610089700,7.63408984375,0.1282939910888672,0.4022974967956543,-1.449510097503662
1682879943626971000,7.650970947265625,-0.14322471618652344,-0.15170526504516602,-1.362807273864746
1682879943643846000,7.667845947265625,-0.044402122497558594,-0.3030555248260498,-1.0289855003356934
1682879943660702000,7.684701904296875,0.36933231353759766,-0.16896605491638184,-0.5645947456359863
1682879943677585400,7.70158544921875,0.551063060760498,-0.036066293716430664,-0.08526897430419922
1682879943694455600,7.71845556640625,0.2448101043701172,0.24052119255065918,0.3958244323730469
1682879943711328000,7.735327880859375,0.12162256240844727,0.5797061920166016,0.9478073120117188
1682879943728198100,7.7521982421875,0.2458782196044922,0.9781594276428223,1.6034293174743652
1682879943745070600,7.769070556640625,0.41994190216064453,1.3364415168762207,2.208871841430664
1682879943761932300,7.785932373046875,0.8776893615722656,1.59474515914917,2.805820941925049
1682879943778814200,7.802814208984375,1.5447578430175781,1.710839033126831,3.351253032684326
1682879943795684400,7.819684326171875,2.188918352127075,1.6401824951171875,3.7364635467529297
1682879943812556800,7.836556884765625,2.8390183448791504,1.7014381885528564,4.10012149810791
1682879943829427500,7.853427490234375,3.1175222396850586,2.1188530921936035,4.177225112915039
1682879943846297000,7.870297119140625,1.8318142890930176,2.2511048316955566,3.4291110038757324
1682879943863178200,7.88717822265625,0.7935800552368164,2.268071174621582,2.867593765258789
1682879943880042800,7.904042724609375,1.0271706581115723,2.5012755393981934,2.940225124359131
1682879943896913200,7.9209130859375,1.6379776000976562,2.268695116043091,3.126190662384033
1682879943913785300,7.937785400390625,1.993328332901001,1.765644907951355,2.973942756652832
1682879943930656000,7.954656005859375,1.9187684059143066,1.2894062995910645,2.6045022010803223
1682879943947518000,7.97151806640625,1.460599660873413,0.9786086082458496,2.221315860748291
1682879943964398600,7.988398681640625,1.1471447944641113,0.9917819499969482,2.0314321517944336
1682879943981271600,8.005271484375,0.8104548454284668,0.8853981494903564,1.9330825805664062
1682879943998132500,8.022132568359375,0.3781929016113281,0.12749934196472168,1.5260858535766602
1682879944015014700,8.0390146484375,-0.22913312911987305,-0.8740382194519043,0.7440791130065918
1682879944031884800,8.055884765625,-1.0579743385314941,-1.2348756790161133,-0.11239290237426758
1682879944048746500,8.07274658203125,-1.9799714088439941,-0.4248194694519043,-0.2987661361694336
1682879944065628200,8.089628173828125,-2.373462200164795,0.5886096954345703,-0.20640850067138672
1682879944082500400,8.106500244140625,-1.9049692153930664,0.3966238498687744,-0.8050642013549805
1682879944099360500,8.123360595703126,-1.5489225387573242,-0.1934211254119873,-1.916433334350586
1682879944116240600,8.14024072265625,-0.591792106628418,-0.5025825500488281,-2.272228717803955
1682879944133116400,8.157116455078125,0.050479888916015625,-0.47851014137268066,-1.8165760040283203
1682879944149985800,8.17398583984375,-0.8479180335998535,-0.3061830997467041,-1.8841052055358887
1682879944166856700,8.190856689453126,4.49440336227417,-8.337800979614258,-8.156204223632812
1682879944183729200,8.207729248046874,-3.4743828773498535,7.098040580749512,-0.992368221282959
1682879944200589300,8.22458935546875,-0.29329776763916016,-0.4543750286102295,-3.2040786743164062
1682879944217471700,8.2414716796875,-0.33342742919921875,1.1918971538543701,-1.0194587707519531
1682879944234342700,8.2583427734375,-0.9796872138977051,0.5314887762069702,-0.3506450653076172
1682879944251214600,8.275214599609376,-1.421764850616455,-0.4502270221710205,-0.2372422218322754
1682879944268085500,8.29208544921875,-1.4875636100769043,-1.0653281211853027,-0.3360018730163574
1682879944284953900,8.308953857421875,-1.7814264297485352,-0.968517541885376,-0.6601204872131348
1682879944301832400,8.32583251953125,-2.404212474822998,1.0462955236434937,-0.489443302154541
1682879944318700800,8.34270068359375,-2.8282470703125,0.6978738903999329,-0.8217034339904785
1682879944335571000,8.359571044921875,-2.044283866882324,-0.023480653762817383,-0.8396477699279785
1682879944352443000,8.37644287109375,-1.1701741218566895,-0.3771181106567383,-0.8354706764221191
1682879944369315000,8.393315185546875,-1.036872386932373,-0.3127063512802124,-0.6430106163024902
1682879944386185200,8.410185302734375,-1.8005237579345703,-0.047905802726745605,-0.6944823265075684
1682879944403058700,8.42705859375,-2.6812610626220703,0.1180185079574585,-0.9025616645812988
1682879944419929900,8.443929931640625,-3.068678855895996,-0.07933759689331055,-1.2602663040161133
1682879944436799700,8.4607998046875,-2.1137495040893555,-0.883474588394165,-2.369579315185547
1682879944453674500,8.477674560546875,-0.9134187698364258,-0.3479306697845459,-3.8605408668518066
1682879944470532600,8.49453271484375,-0.9479355812072754,1.9087114334106445,-3.2135977745056152
1682879944487415800,8.511415771484375,-0.21651411056518555,1.9926985502243042,-1.2411103248596191
1682879944504285700,8.52828564453125,0.6589131355285645,1.131592035293579,-0.8407058715820312
1682879944521155800,8.54515576171875,-0.10939550399780273,0.5061702728271484,-1.0851058959960938
1682879944538031900,8.562031982421875,-0.2515387535095215,0.34694910049438477,-0.8910236358642578
1682879944554901200,8.5789013671875,-0.1588282585144043,0.186234712600708,-0.629305362701416
1682879944571771600,8.595771728515626,-0.32842397689819336,0.05706381797790527,-0.6573548316955566
1682879944588644600,8.61264453125,-0.648097038269043,-0.030328750610351562,-0.7049469947814941
1682879944605514800,8.6295146484375,-0.17790699005126953,0.08203744888305664,-0.39399242401123047
1682879944622384600,8.646384521484375,0.6376776695251465,0.2675137519836426,0.4019904136657715
1682879944639260700,8.6632607421875,1.2391915321350098,0.5094888210296631,1.2669730186462402
1682879944656126500,8.68012646484375,1.3945045471191406,0.647395133972168,1.9492621421813965
1682879944673001500,8.69700146484375,1.1279888153076172,0.6590545177459717,2.3602662086486816
1682879944689876000,8.7138759765625,0.643369197845459,0.7359256744384766,2.499264717102051
1682879944706743600,8.73074365234375,0.3582634925842285,1.1208608150482178,2.5335335731506348
1682879944723614500,8.747614501953125,0.7069296836853027,1.5274794101715088,2.741788864135742
1682879944740479000,8.76447900390625,1.8128538131713867,1.8195278644561768,3.0651702880859375
1682879944757359000,8.781359130859375,2.815016984939575,2.0046939849853516,3.4043028354644775
1682879944774229800,8.798229736328125,3.048633098602295,2.2062277793884277,3.6062164306640625
1682879944791091700,8.815091796875,2.836280107498169,2.4286184310913086,3.6037588119506836
1682879944807972400,8.831972412109375,2.0545713901519775,2.3562357425689697,3.2285361289978027
1682879944824845300,8.84884521484375,0.9392061233520508,2.1067097187042236,2.5097193717956543
1682879944841715700,8.8657158203125,0.6450004577636719,1.9414335489273071,2.0594520568847656
1682879944858588200,8.882588134765625,1.1589937210083008,1.8159546852111816,2.0183725357055664
1682879944875458600,8.89945849609375,1.565018892288208,1.5434881448745728,1.9924144744873047
1682879944892330800,8.916330810546874,1.6127440929412842,1.0827696323394775,1.9740500450134277
1682879944909201200,8.933201171875,1.4535350799560547,0.4847266674041748,1.8841161727905273
1682879944926069000,8.950069091796875,0.6341910362243652,-0.12851977348327637,1.2638278007507324
1682879944942949000,8.96694921875,-0.6298303604125977,-0.47548675537109375,0.25998687744140625
1682879944959817000,8.98381689453125,-1.4675512313842773,-0.2614908218383789,-0.3143157958984375
1682879944976687600,9.0006875,-1.8507237434387207,0.38466644287109375,-0.4346151351928711
1682879944993559600,9.0175595703125,-1.9555516242980957,0.7132301330566406,-0.7691588401794434
1682879945010419700,9.034419677734375,-1.2909188270568848,0.34729456901550293,-0.8187136650085449
1682879945027302700,9.051302734375,-0.5024771690368652,-0.14814257621765137,-0.8203144073486328
1682879945044170500,9.06817041015625,-0.28560400009155273,-0.5157570838928223,-1.0291924476623535
1682879945061048600,9.085048583984374,-0.4464230537414551,-0.4274125099182129,-1.0687470436096191
1682879945077916400,9.10191650390625,-0.7264842987060547,-0.02747941017150879,-1.0297179222106934
1682879945094789000,9.1187890625,-0.9765300750732422,0.37110400199890137,-1.325068473815918
1682879945111659300,9.1356591796875,-1.2211031913757324,0.6759065389633179,-1.69771146774292
1682879945128531700,9.15253173828125,-0.7398805618286133,0.6141945123672485,-1.5485773086547852
1682879945145402000,9.169402099609375,4.0954976081848145,-5.375027656555176,-6.664059162139893
1682879945162274600,9.186274658203125,-0.6857137680053711,2.3191840648651123,0.2685976028442383
1682879945179145500,9.2031455078125,-1.3185453414916992,0.7025282382965088,0.29799890518188477
1682879945196018000,9.220017822265625,-2.2050023078918457,-0.5063923597335815,-0.5416531562805176
1682879945212888000,9.23688818359375,-3.45249080657959,-0.611832857131958,-0.8161087036132812
1682879945229761000,9.253760986328125,-3.5557050704956055,-0.30218780040740967,-0.9922494888305664
1682879945246631000,9.270630859375,-2.5006227493286133,0.15395092964172363,-1.1386494636535645
1682879945263503400,9.28750341796875,-1.4925613403320312,0.7263456583023071,-0.9813394546508789
1682879945280368000,9.3043681640625,-1.99403715133667,-0.39266228675842285,-1.3638043403625488
1682879945297247000,9.3212470703125,-2.075988292694092,-1.3198800086975098,-1.5372347831726074
1682879945314117000,9.3381171875,-1.6961817741394043,-1.5100005865097046,-0.927363395690918
1682879945330992400,9.354992431640625,-1.7066316604614258,-1.0274909734725952,-0.5888714790344238
1682879945347860000,9.37185986328125,-1.9793529510498047,-0.5609261989593506,-0.9045553207397461
1682879945364732700,9.388732666015626,-1.9339299201965332,-0.5622708797454834,-1.953442096710205
1682879945381585700,9.405585693359376,-1.2756943702697754,0.17438125610351562,-3.439517021179199
1682879945398475500,9.4224755859375,-1.2284107208251953,2.049211025238037,-3.433300495147705
1682879945415346200,9.43934619140625,-1.0880804061889648,2.9682767391204834,-1.714634895324707
1682879945432218600,9.456218505859376,0.5715808868408203,1.877342939376831,-0.411837100982666
1682879945449089300,9.47308935546875,0.32026100158691406,0.5268685817718506,-1.0050849914550781
1682879945465959000,9.489958984375,-0.4775557518005371,-0.5818526744842529,-1.6808719635009766
1682879945482834400,9.50683447265625,-0.529449462890625,-1.1458024978637695,-1.8251838684082031
1682879945499704300,9.523704345703125,-0.15190601348876953,-0.8157985210418701,-1.3355326652526855
1682879945516574700,9.54057470703125,-0.01710796356201172,0.07004737854003906,-0.25672054290771484
1682879945533447400,9.557447509765625,0.6431636810302734,0.24534058570861816,0.6447997093200684
1682879945550307000,9.57430712890625,1.2208938598632812,0.1115415096282959,1.0923528671264648
1682879945567190500,9.5911904296875,1.0567655563354492,0.17210912704467773,1.320699691772461
1682879945584050200,9.60805029296875,0.44801902770996094,0.5236120223999023,1.5870404243469238
1682879945600933600,9.62493359375,0.029187679290771484,0.985830545425415,2.154662609100342
1682879945617803800,9.6418037109375,0.4552593231201172,1.4791319370269775,2.8382930755615234
1682879945634676200,9.65867626953125,1.468210220336914,1.7772207260131836,3.2990636825561523
1682879945651547000,9.675546875,2.1998202800750732,2.1801040172576904,3.490994930267334
1682879945668419600,9.692419677734375,2.034665584564209,2.8576650619506836,3.3167312145233154
1682879945685289700,9.709289794921874,1.3768773078918457,3.2488341331481934,3.012932300567627
1682879945702162400,9.726162353515624,1.5516068935394287,3.219423770904541,2.9380784034729004
1682879945719032800,9.74303271484375,2.144571542739868,2.811584949493408,2.7983031272888184
1682879945735907600,9.759907470703125,2.5311293601989746,2.3765640258789062,2.556208610534668
1682879945752773000,9.776773193359375,2.6703929901123047,2.187495708465576,2.561934471130371
1682879945769648600,9.793648681640626,2.2608838081359863,2.1177330017089844,2.6757354736328125
1682879945786516000,9.810515869140625,1.8551685810089111,1.8358685970306396,2.4800972938537598
1682879945803394000,9.82739404296875,1.5131559371948242,1.2226548194885254,1.8956818580627441
1682879945820262000,9.844261962890625,1.363354206085205,0.5587141513824463,1.457481861114502
1682879945837134000,9.861134033203125,1.5949335098266602,-0.1291670799255371,1.5575475692749023
1682879945854004700,9.878004638671875,1.4535436630249023,-0.9509625434875488,1.7244582176208496
1682879945870866700,9.89486669921875,0.23164892196655273,-1.7265033721923828,1.141716480255127
1682879945887747600,9.91174755859375,-2.1186370849609375,-2.2626750469207764,0.0675954818725586
1682879945904621800,9.928621826171875,-3.912339210510254,-1.5415053367614746,-0.6673340797424316
1682879945921489400,9.945489501953125,-3.803602695465088,0.006564140319824219,-1.0726194381713867
1682879945938368000,9.962367919921874,-2.5539326667785645,0.8270977735519409,-1.2934393882751465
1682879945955230000,9.97922998046875,-0.08786869049072266,0.20890212059020996,-0.8290114402770996
1682879945972109300,9.996109375,0.9409642219543457,-0.6150693893432617,-1.2277798652648926
1682879945988976600,10.0129765625,0.09712028503417969,-1.3024704456329346,-1.708756446838379
1682879946005847300,10.029847412109374,-1.4578585624694824,-0.7007160186767578,-1.7574429512023926
1682879946022722300,10.046722412109375,4.207551002502441,-8.545172691345215,-8.325390815734863
1682879946039592200,10.06359228515625,-3.395122528076172,6.903875827789307,-0.998626708984375
1682879946056460300,10.080460205078126,-1.033043384552002,0.4168214797973633,-2.7436699867248535
1682879946073337900,10.097337890625,-0.6099319458007812,0.6096178889274597,-1.197925090789795
1682879946090206000,10.1142060546875,-0.7958769798278809,-0.3200598955154419,-0.29137086868286133
1682879946107085800,10.1310859375,-1.4102087020874023,-0.9750747680664062,-0.14730215072631836
1682879946123949600,10.147949462890624,-2.4594569206237793,-0.9214593172073364,-0.8233990669250488
1682879946140821500,10.164821533203124,-2.4537758827209473,0.5007435083389282,-0.8170580863952637
1682879946157689300,10.181689453125,-2.5514140129089355,-0.11636388301849365,-1.3769936561584473
1682879946174567200,10.198567138671875,-2.5115699768066406,-1.0321049690246582,-1.73563814163208
1682879946191434800,10.215434814453126,-2.014780044555664,-1.7120977640151978,-1.4651098251342773
1682879946208307000,10.232306884765626,-1.8311758041381836,-1.81954824924469,-1.0230517387390137
1682879946225161000,10.249160888671875,-1.9387998580932617,-1.6829049587249756,-1.321460247039795
1682879946242050300,10.26605029296875,-1.6289377212524414,-1.3264665603637695,-2.5707807540893555
1682879946258920700,10.282920654296875,-0.7024779319763184,0.11589646339416504,-3.416379928588867
1682879946275793400,10.29979345703125,-0.9001092910766602,1.3557463884353638,-2.6974987983703613
1682879946292663800,10.316663818359375,-1.1906657218933105,1.4106738567352295,-1.7517518997192383
1682879946309536000,10.333535888671875,-0.10366201400756836,0.510089635848999,-1.2296514511108398
1682879946326406400,10.350406494140625,0.1305999755859375,-0.09983444213867188,-0.9117035865783691
1682879946343279400,10.367279296875,0.3462681770324707,-0.49583005905151367,-0.5380477905273438
1682879946360139000,10.384138916015624,0.5092706680297852,-0.6370501518249512,-0.2362194061279297
1682879946377022000,10.40102197265625,-0.14223575592041016,-0.5396969318389893,-0.35109949111938477
1682879946393894100,10.41789404296875,-0.6897220611572266,-0.3025856018066406,-0.3551158905029297
1682879946410763500,10.434763427734374,-0.22104644775390625,-0.022162199020385742,0.16438055038452148
1682879946427635500,10.451635498046874,0.4014005661010742,0.3846745491027832,0.7178850173950195
1682879946444508200,10.468508056640625,0.9013819694519043,0.8593311309814453,1.558610439300537
1682879946461378800,10.48537890625,1.0891146659851074,1.415150761604309,2.351377010345459
1682879946478251000,10.5022509765625,0.9398417472839355,1.6756502389907837,2.8326950073242188
1682879946495121700,10.51912158203125,0.5476937294006348,1.7265836000442505,2.8886117935180664
1682879946511993600,10.53599365234375,0.7106328010559082,2.121884822845459,2.892671585083008
1682879946528865500,10.552865478515624,1.5071642398834229,2.8779566287994385,2.9630417823791504
1682879946545737000,10.569737060546874,1.7989768981933594,3.461155652999878,2.8038558959960938
1682879946562595000,10.586594970703125,1.56526780128479,3.578317642211914,2.541980743408203
1682879946579480300,10.603480224609376,1.8419957160949707,3.434626340866089,2.4288320541381836
1682879946596348200,10.62034814453125,2.270653486251831,3.269991636276245,2.64609956741333
1682879946613215500,10.637215576171876,2.4924492835998535,3.1793456077575684,2.757080078125
1682879946630083000,10.6540830078125,2.252141237258911,2.911863088607788,2.42623233795166
1682879946646966500,10.670966552734376,1.7987828254699707,2.3930699825286865,1.6317033767700195
1682879946663833000,10.6878330078125,1.6166350841522217,1.6221809387207031,0.9843482971191406
1682879946680698600,10.70469873046875,1.3010263442993164,0.7852516174316406,0.7065439224243164
1682879946697580000,10.721580078125,1.0674936771392822,0.2044844627380371,0.722954273223877
1682879946714441500,10.73844140625,0.8565888404846191,-0.33478784561157227,0.7465295791625977
1682879946731322400,10.755322265625,0.32779502868652344,-0.7421512603759766,0.4251689910888672
1682879946748194600,10.772194580078125,-0.8294758796691895,-0.7061760425567627,-0.1086573600769043
1682879946765066200,10.789066162109375,-2.7742347717285156,-0.6383752822875977,-0.5340032577514648
1682879946781925600,10.805925537109376,-3.942966938018799,-1.104283332824707,-1.0088768005371094
1682879946798800400,10.82280029296875,-3.055492877960205,-1.6717228889465332,-1.509836196899414
1682879946815683600,10.83968359375,-1.56044340133667,-1.3775646686553955,-1.2143230438232422
1682879946832551700,10.8565517578125,-0.04527091979980469,-0.792935848236084,-0.7403383255004883
1682879946849424600,10.873424560546875,0.5205755233764648,-0.28537797927856445,-0.3032684326171875
1682879946866292000,10.8902919921875,0.07683610916137695,-0.06923818588256836,-0.049297332763671875
1682879946883169800,10.907169677734375,-0.6327667236328125,-0.1421961784362793,-0.3926200866699219
1682879946900037600,10.92403759765625,-1.1048269271850586,-0.5589878559112549,-1.3704137802124023
1682879946916910000,10.94091015625,-0.7742733955383301,-0.675178050994873,-1.761819839477539
1682879946933780700,10.95778076171875,-0.25551319122314453,-0.5524780750274658,-1.387486457824707
1682879946950653200,10.974653076171874,0.3143935203552246,-0.5337153673171997,-0.8221893310546875
1682879946967523600,10.991523681640626,0.5151543617248535,-0.5275156497955322,-0.32936954498291016
1682879946984396500,11.008396484375,0.3241081237792969,-0.30321037769317627,0.022238731384277344
1682879947001267000,11.025266845703126,-0.34343910217285156,-0.10022509098052979,-0.0073719024658203125
1682879947018139100,11.04213916015625,-1.1480498313903809,-0.3340921401977539,-0.6366844177246094
1682879947035009500,11.059009521484375,-1.4825482368469238,-1.1667778491973877,-1.8267936706542969
1682879947051882200,11.07588232421875,-1.912193775177002,0.8868893384933472,-2.5619516372680664
1682879947068752600,11.092752685546875,-1.9875845909118652,-0.6694086790084839,-1.3571109771728516
1682879947085625300,11.109625244140625,-1.9758124351501465,-1.381575345993042,-1.5209283828735352
1682879947102496000,11.12649609375,-1.4264373779296875,-1.733841896057129,-2.115138053894043
1682879947119368200,11.1433681640625,-0.5318803787231445,-0.4368586540222168,-2.011850357055664
1682879947136236000,11.160236083984374,-0.49147462844848633,0.3482469320297241,-1.7586555480957031
1682879947153113600,11.177113525390626,-1.0327301025390625,0.5930423736572266,-2.024843215942383
1682879947169981700,11.193981689453125,-1.6497211456298828,0.3504413366317749,-2.0590057373046875
1682879947186854400,11.2108544921875,-1.2240543365478516,0.21596574783325195,-1.9217214584350586
1682879947203724800,11.227724853515625,-0.6613020896911621,0.1383969783782959,-1.5474815368652344
1682879947220586800,11.244586669921874,-0.12160062789916992,-0.056847572326660156,-1.2652745246887207
1682879947237468000,11.261468017578125,-0.05676460266113281,-0.45253777503967285,-1.131375789642334
1682879947254340000,11.278340087890625,-0.26784801483154297,-0.5125913619995117,-1.0120539665222168
1682879947271210800,11.295210693359374,-0.015067100524902344,-0.13981962203979492,-0.4609847068786621
1682879947288082000,11.31208203125,-0.2530045509338379,0.33882951736450195,-0.15894079208374023
1682879947304956000,11.328955810546875,-0.985832691192627,0.5538063049316406,-0.20054197311401367
1682879947321830000,11.345829833984375,-1.3508052825927734,0.6486597061157227,-0.1050872802734375
1682879947338697000,11.362697021484376,-0.6982913017272949,0.6793844699859619,0.36402416229248047
1682879947355569700,11.379569580078124,0.26865386962890625,0.5941846370697021,0.7081894874572754
1682879947372439600,11.396439453125,1.2199435234069824,0.5079457759857178,1.0635251998901367
1682879947389312300,11.413312255859376,1.830620288848877,0.8015439510345459,1.541153907775879
1682879947406182100,11.43018212890625,2.1032042503356934,1.2697854042053223,2.1895523071289062
1682879947423056100,11.44705615234375,2.193087577819824,1.7056454420089722,2.803018569946289
1682879947439923500,11.46392333984375,2.248077630996704,2.100919246673584,3.261545181274414
1682879947456801300,11.48080126953125,2.389451742172241,2.4318904876708984,3.511582136154175
1682879947473668900,11.4976689453125,2.4034905433654785,2.5539422035217285,3.4466123580932617
1682879947490531000,11.514531005859375,1.9639995098114014,2.383091926574707,3.031724452972412
1682879947507411700,11.53141162109375,1.2275898456573486,2.4731645584106445,2.5421128273010254
1682879947524284200,11.5482841796875,0.8147711753845215,2.8062024116516113,2.2938551902770996
1682879947541155000,11.565155029296875,0.9989771842956543,2.835047721862793,2.1350979804992676
1682879947558024200,11.582024169921874,1.539585828781128,2.3248085975646973,1.9858675003051758
1682879947574901500,11.598901611328126,1.7418968677520752,1.62161123752594,1.7524962425231934
1682879947591770400,11.615770263671875,1.5791237354278564,0.6943614482879639,1.5563526153564453
1682879947608640800,11.632640869140625,1.0624709129333496,-0.1153249740600586,1.2091212272644043
1682879947625513200,11.64951318359375,0.4234137535095215,-0.4999258518218994,0.9392566680908203
1682879947642384100,11.666384033203125,-0.05338239669799805,-0.49364304542541504,0.9216709136962891
1682879947659256600,11.683256591796875,-0.9104790687561035,-0.5215692520141602,0.5353312492370605
1682879947676124000,11.7001240234375,-1.9009299278259277,-0.5934288501739502,-0.25388002395629883
1682879947693002800,11.717002685546875,-2.511760711669922,-0.5016982555389404,-0.790245532989502
1682879947709869800,11.733869873046874,-2.5212740898132324,-0.21466684341430664,-0.7853517532348633
1682879947726742300,11.7507421875,-1.3349542617797852,-0.4889960289001465,-0.7400140762329102
1682879947743612700,11.76761279296875,0.36017560958862305,-1.1196415424346924,-0.7158060073852539
1682879947760475000,11.784474853515626,1.647188425064087,-1.5031087398529053,-0.4126744270324707
1682879947777356300,11.801356201171876,1.0340576171875,-1.6087193489074707,-0.07297801971435547
1682879947794228500,11.818228515625,-0.7974724769592285,-1.244978904724121,-0.33272886276245117
1682879947811099100,11.83509912109375,-1.7301220893859863,-0.8234038352966309,-0.9739804267883301
1682879947827971300,11.851971435546876,-1.554551601409912,-0.2019789218902588,-1.6382179260253906
1682879947844841700,11.868841796875,3.9438135623931885,-7.4099321365356445,-8.597066879272461
1682879947861714400,11.88571435546875,-1.2696685791015625,2.864673614501953,-0.9554800987243652
1682879947878585300,11.90258544921875,-0.1063985824584961,1.6873140335083008,0.16648435592651367
1682879947895457500,11.91945751953125,0.40188121795654297,0.13836300373077393,0.06451559066772461
1682879947912328000,11.936327880859375,-0.7416644096374512,-0.39876341819763184,-0.14660120010375977
1682879947929201000,11.953200927734375,-2.6125779151916504,-0.5248960256576538,-0.8220443725585938
1682879947946066700,11.970066650390624,-3.8652405738830566,-0.23032939434051514,-1.3990330696105957
1682879947962947600,11.986947509765624,-3.762477397918701,0.9378686547279358,-1.023566722869873
1682879947979814100,12.003814208984375,-3.07118558883667,-0.10070252418518066,-1.2533283233642578
1682879947996686600,12.0206865234375,-2.220512866973877,-0.9218738079071045,-1.5336456298828125
1682879948013546200,12.037546142578124,-1.5396146774291992,-1.2720136642456055,-1.2622179985046387
1682879948030419000,12.0544189453125,-1.2992634773254395,-1.4609324932098389,-0.9091300964355469
1682879948047314000,12.07131396484375,-1.1868376731872559,-1.525854468345642,-1.1379919052124023
1682879948064172800,12.0881728515625,-0.8136200904846191,-1.5738062858581543,-2.069260597229004
1682879948081043500,12.10504345703125,-0.2378849983215332,-0.2839694023132324,-3.0624313354492188
1682879948097905200,12.1219052734375,-0.39000988006591797,1.5550446510314941,-2.8729171752929688
1682879948114785800,12.138785888671874,-1.3649682998657227,2.4063806533813477,-1.692643642425537
1682879948131658800,12.15565869140625,-0.37708330154418945,1.5967944860458374,-0.7707786560058594
1682879948148529200,12.172529052734374,-0.1387624740600586,0.5097765922546387,-0.9201292991638184
1682879948165402000,12.189402099609374,0.12955331802368164,-0.14518070220947266,-0.9084787368774414
1682879948182272500,12.2062724609375,0.4483661651611328,-0.2249135971069336,-0.4162106513977051
1682879948199144700,12.223144775390624,0.2788519859313965,0.12183976173400879,0.06704902648925781
1682879948216015000,12.24001513671875,-0.49184703826904297,0.2953639030456543,0.22685623168945312
1682879948232887800,12.2568876953125,-0.5167131423950195,0.26630449295043945,0.3302321434020996
1682879948249753900,12.27375390625,0.0774388313293457,0.21399831771850586,0.6389827728271484
1682879948266635300,12.29063525390625,0.5994052886962891,0.30835771560668945,1.117110252380371
1682879948283501600,12.30750146484375,1.1615118980407715,0.5335547924041748,1.754826545715332
1682879948300377000,12.324377197265624,1.6999883651733398,0.7292325496673584,2.4133105278015137
1682879948317244200,12.341244140625,2.0069353580474854,1.0695481300354004,2.9438185691833496
1682879948334106400,12.3581064453125,2.2264292240142822,1.6288256645202637,3.372896432876587
1682879948350987300,12.3749873046875,2.189514398574829,2.332085371017456,3.7157461643218994
1682879948367860000,12.39185986328125,1.6229076385498047,2.971102714538574,3.563465118408203
1682879948384730600,12.408730712890625,0.8692049980163574,3.0685062408447266,2.7317895889282227
1682879948401603000,12.42560302734375,1.3783965110778809,2.5862350463867188,2.263059139251709
1682879948418473500,12.442473388671875,1.9175999164581299,2.362544536590576,2.470308780670166
1682879948435345700,12.459345703125,2.1486380100250244,2.0410685539245605,2.6758670806884766
1682879948452224000,12.47622412109375,2.27653431892395,1.7595685720443726,2.652191638946533
1682879948469089300,12.49308935546875,1.8090519905090332,1.3987723588943481,2.341722011566162
1682879948485957000,12.50995703125,1.359480381011963,0.9086596965789795,1.7943015098571777
1682879948502834400,12.52683447265625,1.3880352973937988,0.5319569110870361,1.3821821212768555
1682879948519702800,12.543702880859374,1.1125893592834473,0.17861270904541016,1.203608512878418
1682879948536575000,12.560574951171875,-0.03170633316040039,-0.5185229778289795,1.0124187469482422
1682879948553445400,12.5774453125,-1.3003573417663574,-1.252267837524414,0.5637655258178711
1682879948570307800,12.594307861328126,-2.343430995941162,-1.4888787269592285,-0.13987207412719727
1682879948587188700,12.611188720703124,-2.991530418395996,-1.008681058883667,-0.936286449432373
1682879948604061000,12.62806103515625,-2.0740742683410645,-0.782564640045166,-1.3319830894470215
1682879948620931600,12.644931640625,-0.31187868118286133,-0.9234437942504883,-1.4139351844787598
1682879948637804300,12.66180419921875,1.1030478477478027,-1.063232660293579,-1.2138056755065918
1682879948654674400,12.67867431640625,1.608574628829956,-0.897275447845459,-0.9852232933044434
1682879948671545000,12.695545166015625,1.4122376441955566,-2.021735191345215,-1.8309483528137207
1682879948688419600,12.712419677734376,-3.1513190269470215,6.35371208190918,-1.1574969291687012
1682879948705290000,12.7292900390625,0.23289823532104492,-3.1238017082214355,-4.1859917640686035
1682879948722162700,12.74616259765625,-1.8243827819824219,0.1936323642730713,-1.159113883972168
1682879948739031600,12.763031494140625,-1.7533836364746094,0.11734223365783691,-0.2239375114440918
1682879948755899600,12.779899658203124,-1.6871800422668457,0.23223429918289185,0.03405332565307617
1682879948772780300,12.7967802734375,-1.7734918594360352,0.09675323963165283,-0.22885847091674805
1682879948789646600,12.813646484375,-1.5241003036499023,-0.27672404050827026,-0.4423789978027344
1682879948806506000,12.830506103515624,-1.1655220985412598,-0.9109549522399902,-0.9194350242614746
1682879948823392300,12.847392333984375,-0.7846713066101074,-0.58652263879776,-1.201958179473877
1682879948840262100,12.86426220703125,-1.0991950035095215,0.12685078382492065,-0.9805912971496582
1682879948857134600,12.881134521484375,-2.451120376586914,-0.5759785771369934,-1.6260604858398438
1682879948874003700,12.898003662109375,-3.1996607780456543,-1.1277602910995483,-1.7197699546813965
1682879948890875600,12.914875732421875,-2.3209214210510254,-1.1274020671844482,-1.078688621520996
1682879948907748000,12.931748046875,-1.222825527191162,-1.0366605520248413,-0.7304010391235352
1682879948924619000,12.948618896484374,-0.7954692840576172,-0.978604793548584,-0.7340250015258789
1682879948941491500,12.965491455078125,-1.1448073387145996,-0.7156851291656494,-0.9076981544494629
1682879948958362000,12.982362060546874,-1.8373160362243652,-0.54172682762146,-1.592179298400879
1682879948975236900,12.99923681640625,-0.7926359176635742,0.370542049407959,-2.7617177963256836
1682879948992102400,13.016102294921875,0.10888385772705078,1.9844897985458374,-2.7870593070983887
1682879949008977200,13.03297705078125,-1.246744155883789,2.484309673309326,-1.2084383964538574
1682879949025847600,13.04984765625,-0.4150857925415039,0.9990284442901611,-0.5477261543273926
1682879949042720500,13.066720458984374,-0.21219587326049805,-0.2620658874511719,-0.8052043914794922
1682879949059591000,13.0835908203125,0.2120523452758789,-0.32718539237976074,-0.5161571502685547
1682879949076461000,13.1004609375,0.4492335319519043,0.057752132415771484,-0.043709754943847656
1682879949093336600,13.117336669921874,0.23180341720581055,0.052698612213134766,0.09908580780029297
1682879949110207000,13.13420703125,-0.481966495513916,-0.11597037315368652,0.008133888244628906
1682879949127076900,13.151076904296875,-0.40265941619873047,-0.19414639472961426,0.10258102416992188
1682879949143940400,13.1679404296875,0.4017171859741211,0.29514622688293457,0.6974282264709473
1682879949160820000,13.184820068359375,0.7570338249206543,0.9832980632781982,1.3369388580322266
1682879949177692700,13.201692626953125,1.1290717124938965,1.215989351272583,2.0051870346069336
1682879949194563000,13.21856298828125,1.6640429496765137,1.235379695892334,2.596217155456543
1682879949211435500,13.235435546875,2.1619606018066406,1.1562228202819824,2.9990763664245605
1682879949228305700,13.2523056640625,2.554903745651245,1.3109712600708008,3.2483701705932617
1682879949245178400,13.269178466796875,2.4395484924316406,1.882921814918518,3.1413726806640625
1682879949262048800,13.286048828125,1.5118927955627441,2.1952619552612305,2.487576484680176
1682879949278921500,13.30292138671875,1.3327274322509766,2.2394323348999023,2.3000335693359375
1682879949295792000,13.319792236328125,1.6704542636871338,2.4917924404144287,2.3493075370788574
1682879949312664800,13.336664794921875,2.1867542266845703,2.359468460083008,2.461001396179199
1682879949329527800,13.35352783203125,2.593430995941162,2.056208848953247,2.634340763092041
1682879949346407400,13.370407470703125,2.2515828609466553,1.6276921033859253,2.492006301879883
1682879949363277800,13.38727783203125,1.6849734783172607,0.8150913715362549,2.193758964538574
1682879949380141300,13.404141357421874,0.7599802017211914,0.24588537216186523,1.5324492454528809
1682879949397021200,13.421021240234374,0.044588565826416016,0.11043953895568848,1.0579161643981934
1682879949413893600,13.4378935546875,0.004193782806396484,0.04251980781555176,1.2410430908203125
1682879949430753300,13.454753173828125,0.0755314826965332,-0.47901105880737305,1.176692008972168
1682879949447637000,13.471636962890624,-0.11638593673706055,-0.9918820858001709,0.42377758026123047
1682879949464507100,13.488507080078126,-0.7454304695129395,-1.073986530303955,-0.30961132049560547
1682879949481369000,13.505369140625,-1.5295281410217285,-0.9398305416107178,-0.45728302001953125
1682879949498238500,13.522238525390625,-1.688514232635498,-0.7353065013885498,-0.8221898078918457
1682879949515122700,13.539122802734376,-1.528562068939209,-0.6940462589263916,-1.520608901977539
1682879949531993000,13.5559931640625,-0.34273290634155273,-0.45114922523498535,-1.7129387855529785
1682879949548865800,13.57286572265625,1.17112398147583,-0.33809375762939453,-1.0444717407226562
1682879949565736400,13.589736328125,1.292801856994629,-0.28265810012817383,-0.5056462287902832
1682879949582608600,13.606608642578125,5.249286651611328,-6.935060024261475,-5.571436405181885
1682879949599479000,13.62347900390625,-3.8222928047180176,6.883668422698975,-0.0991663932800293
1682879949616349000,13.640348876953125,-0.46075963973999023,-1.6032930612564087,-3.0396275520324707
1682879949633224700,13.657224609375,-1.017601490020752,0.19431030750274658,-0.3007693290710449
1682879949650094800,13.6740947265625,-0.9773659706115723,-0.17083561420440674,0.6777820587158203
1682879949666965500,13.690965576171875,-1.0482468605041504,-0.6608739495277405,0.5251913070678711
1682879949683837700,13.707837646484375,-1.0234217643737793,-0.8907790780067444,0.00889730453491211
1682879949700698400,13.724698486328125,-0.5898475646972656,-0.8540714979171753,-0.48756933212280273
1682879949717580800,13.741580810546875,-0.04074382781982422,-0.8084750175476074,-0.6933469772338867
1682879949734451000,13.758450927734375,0.3266754150390625,-0.47332656383514404,-1.0398125648498535
1682879949751323600,13.77532373046875,0.1749124526977539,0.2467380166053772,-1.5289154052734375
1682879949768194600,13.792194580078124,0.3828425407409668,0.3765214681625366,-0.5157794952392578
1682879949785066800,13.809066650390625,-0.9753656387329102,0.1312498152256012,0.11466550827026367
1682879949801937400,13.8259375,-2.8279571533203125,0.10104575753211975,0.08870887756347656
1682879949818810000,13.84281005859375,-3.291475296020508,0.07617604732513428,0.1714162826538086
1682879949835680000,13.859679931640626,-1.9287605285644531,-0.4782373607158661,0.3567180633544922
1682879949852550100,13.876550048828125,-1.666459083557129,-0.5382139682769775,-0.12424468994140625
1682879949869426400,13.893426513671875,-2.2971677780151367,0.04932105541229248,-0.9235801696777344
1682879949886293500,13.91029345703125,-2.2232961654663086,0.4147137701511383,-1.092726707458496
1682879949903166200,13.927166259765626,-2.1728367805480957,0.3681648075580597,-0.868079662322998
1682879949920041700,13.944041748046875,-2.127584457397461,0.1511937379837036,-0.8177456855773926
1682879949936909300,13.960909423828125,-1.6383423805236816,-0.42076075077056885,-0.805363655090332
1682879949953784800,13.977784912109374,-1.3909435272216797,-1.234938383102417,-0.7038555145263672
1682879949970636300,13.99463623046875,-1.9675588607788086,-1.7122035026550293,-0.9410629272460938
1682879949987526700,14.011526611328126,-2.0032424926757812,-2.0419697761535645,-2.05125093460083
1682879950004395500,14.0283955078125,-0.9102969169616699,-1.0464081764221191,-3.523209571838379
1682879950021270800,14.045270751953124,0.4658818244934082,1.0577951669692993,-4.199252605438232
1682879950038138600,14.062138671875,0.16885995864868164,2.391996145248413,-2.5670385360717773
1682879950055011000,14.079010986328125,-0.0628352165222168,2.389359712600708,-0.36556339263916016
1682879950071881200,14.095881103515625,-0.22224807739257812,1.4698325395584106,0.20126056671142578
1682879950088754000,14.11275390625,-0.7013068199157715,0.26873207092285156,-0.34928178787231445
1682879950105624800,14.129624755859375,-0.2372426986694336,-0.540123701095581,-1.182633876800537
1682879950122497300,14.146497314453125,0.35312509536743164,-0.7033541202545166,-1.3325386047363281
1682879950139367400,14.163367431640625,0.5563983917236328,-0.23940134048461914,-0.3978118896484375
1682879950156237600,14.180237548828124,0.7655134201049805,0.05095076560974121,0.6785101890563965
1682879950173113300,14.19711328125,1.3807177543640137,0.0700986385345459,1.4126696586608887
1682879950189983000,14.21398291015625,1.8870563507080078,0.0363461971282959,1.88920259475708
1682879950206853400,14.230853271484374,1.6600871086120605,0.17255949974060059,2.1145520210266113
1682879950223726300,14.247726318359375,1.3204665184020996,0.40685296058654785,2.357696533203125
1682879950240586000,14.2645859375,1.6117119789123535,0.710456371307373,2.7888951301574707
1682879950257469200,14.28146923828125,2.4136595726013184,1.2952814102172852,3.2443315982818604
1682879950274339600,14.298339599609376,2.68218994140625,2.1999216079711914,3.380706310272217
1682879950291212000,14.3152119140625,2.264167070388794,2.750317335128784,3.270651340484619
1682879950308082400,14.33208251953125,2.2559189796447754,2.8645823001861572,3.255232572555542
1682879950324944600,14.348944580078125,2.3345112800598145,2.831921100616455,3.100980758666992
1682879950341825800,14.36582568359375,2.263336420059204,2.4628515243530273,2.744027614593506
1682879950358698500,14.382698486328126,2.1643002033233643,2.1989357471466064,2.4355812072753906
1682879950375569000,14.39956884765625,2.3627500534057617,2.087803363800049,2.634333610534668
1682879950392441000,14.416441162109376,2.2562530040740967,1.694467306137085,2.83306884765625
1682879950409311500,14.4333115234375,1.7082042694091797,1.0424213409423828,2.6384940147399902
1682879950426184400,14.450184326171875,1.1473617553710938,0.43307971954345703,2.3372015953063965
1682879950443054300,14.467054443359375,0.43751096725463867,-0.03416776657104492,1.918367862701416
1682879950459927600,14.483927490234375,-0.6483306884765625,-0.5996255874633789,1.1540732383728027
1682879950476798000,14.5007978515625,-1.880208969116211,-1.0832514762878418,0.0715327262878418
1682879950493670400,14.51767041015625,-3.0372862815856934,-1.2939376831054688,-0.9986357688903809
1682879950510530300,14.5345302734375,-2.8038830757141113,-0.909304141998291,-1.465017318725586
1682879950527413200,14.551413330078125,-0.9876003265380859,-0.7408084869384766,-1.464818000793457
1682879950544283600,14.56828369140625,0.5753536224365234,-0.902972936630249,-1.3120231628417969
1682879950561145600,14.5851455078125,1.0851411819458008,-0.5410706996917725,-1.1973762512207031
1682879950578027000,14.602027099609375,0.3637866973876953,0.05865144729614258,-0.9220795631408691
1682879950594899500,14.6188994140625,-0.4704256057739258,0.36202704906463623,-0.6945571899414062
1682879950611759600,14.635759521484376,-0.49226999282836914,-0.04774665832519531,-0.8914952278137207
1682879950628642300,14.652642333984375,-0.5412163734436035,-0.8063259124755859,-1.6430788040161133
1682879950645512700,14.6695126953125,-0.37990474700927734,-1.0292084217071533,-1.881556510925293
1682879950662375200,14.686375244140624,-0.3828125,-0.6211061477661133,-1.3012332916259766
1682879950679256000,14.703256103515624,-0.6433963775634766,-0.06801700592041016,-0.5710949897766113
1682879950696125200,14.720125244140625,-0.1367635726928711,0.017816662788391113,-0.09463977813720703
1682879950713002000,14.737001953125,0.17889881134033203,0.12999844551086426,0.10440206527709961
1682879950729871000,14.75387109375,0.3794083595275879,0.17261695861816406,0.632265567779541
1682879950746742300,14.7707421875,0.15761852264404297,0.02167809009552002,0.7646851539611816
1682879950763614200,14.7876142578125,1.4238452911376953,-2.5556373596191406,-1.5488872528076172
1682879950780474000,14.80447412109375,-2.2072582244873047,3.2771430015563965,-0.7673373222351074
1682879950797357600,14.821357666015626,-0.07365274429321289,-0.5961359739303589,-1.3237957954406738
1682879950814227700,14.838227783203125,-0.08727264404296875,-0.15986990928649902,-0.18949651718139648
1682879950831100400,14.855100341796875,-0.3494143486022949,-0.2534562349319458,0.07684850692749023
1682879950847968500,14.871968505859375,-0.7299942970275879,-0.09470415115356445,-0.11011123657226562
1682879950864845800,14.888845703125,-0.8106904029846191,0.17951178550720215,-0.2766094207763672
1682879950881714000,14.9057138671875,-0.40338945388793945,0.4476177990436554,-0.162811279296875
1682879950898586400,14.92258642578125,-0.09649896621704102,0.4788999557495117,0.0208740234375
1682879950915456800,14.939456787109375,-0.17361783981323242,0.1936216652393341,0.03913688659667969
1682879950932329500,14.95632958984375,-0.19298791885375977,-0.05568400025367737,0.026337146759033203
1682879950949200100,14.9732001953125,0.06760311126708984,-0.14068973064422607,-0.026865005493164062
1682879950966072300,14.990072265625,0.11701536178588867,-0.1343955397605896,-0.36901283264160156
1682879950982932500,15.006932373046874,-0.16027069091796875,-0.10849884152412415,-0.42113447189331055
1682879950999815400,15.0238154296875,-0.738682746887207,-0.28464025259017944,-0.08417177200317383
1682879951016685800,15.040685791015624,-2.3195371627807617,0.36439546942710876,-0.3406515121459961
1682879951033558500,15.05755859375,-3.5456228256225586,0.8170185089111328,-0.3853116035461426
1682879951050418200,15.074418212890626,-3.129432201385498,0.2135930359363556,-0.08713436126708984
1682879951067301400,15.09130126953125,-1.964770793914795,-0.0845501720905304,-0.4707064628601074
1682879951084170000,15.108169921875,-0.808800220489502,-0.2615537941455841,-0.8244657516479492
1682879951101046500,15.125046630859375,-0.30930376052856445,-0.5903666019439697,-0.8238449096679688
1682879951117915000,15.141914794921876,-0.7219252586364746,-1.0083527565002441,-0.7544140815734863
1682879951134787300,15.158787353515624,-1.3623147010803223,-1.2075436115264893,-0.7039070129394531
1682879951151658000,15.175657958984376,-1.789675235748291,-0.93611741065979,-0.5859732627868652
1682879951168530400,15.192530517578126,-2.30037784576416,-0.39861631393432617,-0.6652703285217285
1682879951185398500,15.2093984375,-2.212617874145508,-0.2948399782180786,-0.9751167297363281
1682879951202274600,15.226274658203126,-0.7180137634277344,-0.702440619468689,-1.9698386192321777
1682879951219145500,15.2431455078125,0.9139208793640137,-0.11566877365112305,-3.0003652572631836
1682879951236013800,15.260013916015625,0.22336816787719727,1.4561131000518799,-2.2525858879089355
1682879951252889600,15.2768896484375,-0.9140782356262207,2.290372133255005,-0.6509275436401367
1682879951269759500,15.293759521484375,-0.21383905410766602,1.271991491317749,-0.17513084411621094
1682879951286630100,15.310630126953125,-0.6691126823425293,0.6773257255554199,-0.8019938468933105
1682879951303502600,15.327502685546875,-0.26351404190063477,-0.2840583324432373,-0.976529598236084
1682879951320366600,15.34436669921875,0.38535451889038086,-0.9444117546081543,-0.6347723007202148
1682879951337245700,15.36124560546875,0.5896644592285156,-1.0330476760864258,-0.2208089828491211
1682879951354115800,15.37811572265625,0.5437469482421875,-0.6663525104522705,0.30864810943603516
1682879951370988300,15.39498828125,0.11404132843017578,-0.16177845001220703,0.5899434089660645
1682879951387859200,15.411859130859375,-0.18137788772583008,0.1523280143737793,0.6705589294433594
1682879951404732000,15.42873193359375,0.11469554901123047,0.32689523696899414,0.7781581878662109
1682879951421602000,15.44560205078125,0.7760252952575684,0.372683048248291,1.0645785331726074
1682879951438474800,15.462474853515625,1.5382890701293945,0.4323091506958008,1.539571762084961
1682879951455345200,15.47934521484375,2.221590042114258,0.529987096786499,2.095913887023926
1682879951472216600,15.496216552734374,2.6384289264678955,0.7031042575836182,2.6443939208984375
1682879951489088500,15.513088623046874,2.6231353282928467,1.073918104171753,3.0523672103881836
1682879951505958100,15.529958251953126,2.156886577606201,1.678566813468933,3.2026584148406982
1682879951522833700,15.546833740234375,1.6954827308654785,2.3497419357299805,3.0919029712677
1682879951539703800,15.563703857421874,1.3469867706298828,2.9255752563476562,2.610685348510742
1682879951556574200,15.58057421875,1.5786662101745605,3.159273147583008,2.2382020950317383
1682879951573446400,15.5974462890625,2.3822617530822754,2.907545566558838,2.4181103706359863
1682879951590306000,15.61430615234375,2.8862078189849854,2.320096015930176,2.7786951065063477
1682879951607189500,15.631189453125,2.528400421142578,1.9186952114105225,2.627291202545166
1682879951624060200,15.64806005859375,1.8121557235717773,1.3332332372665405,2.2735037803649902
1682879951640932900,15.664932861328126,1.1897063255310059,0.6919963359832764,1.974806308746338
1682879951657803300,15.68180322265625,0.6801567077636719,0.21226024627685547,1.5892267227172852
1682879951674675500,15.698675537109375,0.37946176528930664,-0.2640652656555176,1.1637382507324219
1682879951691546000,15.715546142578125,-0.17528676986694336,-0.604804515838623,0.7070035934448242
1682879951708418600,15.73241845703125,-0.8679428100585938,-0.889535665512085,0.28160715103149414
1682879951725289000,15.7492890625,-1.1994757652282715,-1.088763952255249,-0.06275033950805664
1682879951742161700,15.76616162109375,-1.6119017601013184,-0.9820559024810791,-0.5860762596130371
1682879951759032300,15.7830322265625,-1.690915584564209,-0.7858099937438965,-1.258260726928711
1682879951775900200,15.799900146484376,-1.2004270553588867,-0.7422513961791992,-1.6812458038330078
1682879951792779300,15.816779296875,0.10959768295288086,-0.4940154552459717,-1.374147891998291
1682879951809647900,15.83364794921875,0.696566104888916,-0.0616152286529541,-0.6368684768676758
1682879951826515200,15.85051513671875,-0.0702199935913086,0.14935743808746338,-0.4676246643066406
1682879951843393300,15.867393310546875,-1.0725173950195312,-0.19994688034057617,-0.9078927040100098
1682879951860260900,15.8842607421875,7.281927108764648,-10.501574516296387,-8.710895538330078
1682879951877133800,15.9011337890625,-3.9836645126342773,5.319507598876953,0.059744834899902344
1682879951894004000,15.91800390625,-2.256680488586426,-0.383508563041687,-1.5240716934204102
1682879951910876700,15.934876708984374,-1.763500690460205,-0.5185060501098633,-0.7763328552246094
1682879951927747300,15.951747314453126,-1.1643567085266113,-0.7790656089782715,-0.12550783157348633
1682879951944619500,15.96861962890625,-0.30368947982788086,-0.8843388557434082,0.0652775764465332
1682879951961490000,15.985489990234376,-0.03979063034057617,-0.7752016186714172,-0.18767786026000977
1682879951978363000,16.00236279296875,-0.20366239547729492,-0.5039876699447632,-0.4766535758972168
1682879951995222300,16.01922216796875,-0.12453746795654297,-0.036516785621643066,-0.41710996627807617
1682879952012095000,16.036094970703125,-0.16833019256591797,0.33990678191185,-0.3295292854309082
1682879952028976400,16.052976318359374,-0.7852554321289062,0.3950187861919403,-0.6734027862548828
1682879952045848600,16.0698486328125,-1.2381372451782227,0.3687066435813904,-0.7605667114257812
1682879952062719000,16.086718994140625,-1.450810432434082,0.6150636672973633,-0.5543947219848633
1682879952079591400,16.10359130859375,-1.4350309371948242,0.18069317936897278,-0.10337972640991211
1682879952096459300,16.120459228515625,-1.7148079872131348,0.2121393084526062,-0.27153730392456055
1682879952113337000,16.137337158203124,-2.0695929527282715,0.10619109869003296,-0.7162027359008789
1682879952130200800,16.154200927734376,-1.9080791473388672,-0.17262154817581177,-0.9756436347961426
1682879952147077600,16.17107763671875,-1.315030574798584,-0.41122424602508545,-0.7106246948242188
1682879952163948000,16.187947998046877,-1.038743495941162,-0.5680615901947021,-0.3933582305908203
1682879952180820700,16.20482080078125,-1.3335189819335938,-0.7789719104766846,-0.3802013397216797
1682879952197691000,16.22169091796875,-1.6740479469299316,-0.8937712907791138,-0.2991495132446289
1682879952214563300,16.238563232421875,-2.013339042663574,-0.564323902130127,-0.3850126266479492
1682879952231434000,16.25543408203125,-2.271048069000244,-0.26776790618896484,-0.762300968170166
1682879952248306400,16.272306396484375,-1.8918437957763672,-0.751312255859375,-1.7701964378356934
1682879952265177300,16.28917724609375,-0.6240396499633789,-0.5210473537445068,-3.18446683883667
1682879952282049800,16.3060498046875,0.568903923034668,1.0015597343444824,-2.9928202629089355
1682879952298920000,16.322919921875,0.12513113021850586,1.5571805238723755,-1.2181472778320312
1682879952315792400,16.33979248046875,0.6035752296447754,0.6164342164993286,-0.6341309547424316
1682879952332663300,16.356663330078124,0.36353015899658203,-0.16834163665771484,-1.1896929740905762
1682879952349535500,16.373535400390626,0.28374481201171875,-0.6129589080810547,-1.2299489974975586
1682879952366395000,16.390394775390625,0.3611106872558594,-0.7871439456939697,-0.6028079986572266
1682879952383281400,16.407281494140626,0.35532712936401367,-0.45638084411621094,0.2719893455505371
1682879952400138800,16.424138671875,0.051522254943847656,-0.2600283622741699,0.5122208595275879
1682879952417021400,16.441021484375,-0.23498868942260742,-0.26219844818115234,0.19276809692382812
1682879952433891800,16.457891845703124,-0.055275917053222656,-0.03359651565551758,0.09882211685180664
1682879952450764500,16.4747646484375,0.33446455001831055,0.4434065818786621,0.5772533416748047
1682879952467635000,16.491635009765623,0.6488461494445801,0.7108299732208252,1.2933440208435059
1682879952484507600,16.508507568359374,1.305882453918457,0.7896080017089844,1.9520950317382812
1682879952501378300,16.52537841796875,2.1764848232269287,1.0683321952819824,2.6072797775268555
1682879952518248200,16.542248291015625,2.833397626876831,1.5674394369125366,3.2052383422851562
1682879952535123500,16.55912353515625,3.090859889984131,2.1278445720672607,3.6139426231384277
1682879952551974700,16.575974609375,2.7354044914245605,2.6298844814300537,3.713184356689453
1682879952568861700,16.59286181640625,1.8097906112670898,2.7722182273864746,3.213770866394043
1682879952585739300,16.6097392578125,1.365086555480957,2.528214931488037,2.408802032470703
1682879952602607000,16.626607177734375,1.7547225952148438,2.340134382247925,2.1273727416992188
1682879952619476000,16.64347607421875,2.3875608444213867,2.0116515159606934,2.419036388397217
1682879952636351000,16.66035107421875,2.691779851913452,1.8077335357666016,2.5761256217956543
1682879952653225000,16.677224853515625,2.1757538318634033,1.6408894062042236,2.305901527404785
1682879952670093000,16.694093017578126,1.583791732788086,0.9442613124847412,1.9133257865905762
1682879952686965200,16.71096533203125,1.264540672302246,0.2527451515197754,1.6512765884399414
1682879952703836000,16.7278359375,1.2156729698181152,-0.10620546340942383,1.7196497917175293
1682879952720698600,16.74469873046875,0.7646117210388184,-0.33340978622436523,1.7098565101623535
1682879952737578200,16.761578125,-0.41252946853637695,-0.6553888320922852,1.2705883979797363
1682879952754451200,16.778451171875,-1.3705620765686035,-0.8078415393829346,0.5900225639343262
1682879952771321900,16.79532177734375,-1.3014111518859863,-0.828040361404419,0.13929367065429688
1682879952788184300,16.812184326171874,-1.1897258758544922,-1.0774807929992676,-0.24332857131958008
1682879952805064700,16.829064697265625,-1.223287582397461,-1.501025915145874,-0.9444637298583984
1682879952821937700,16.845937744140624,-0.8639998435974121,-1.6475632190704346,-1.7109088897705078
1682879952838808000,16.86280810546875,-0.050600528717041016,-1.2171475887298584,-1.9027481079101562
1682879952855680500,16.879680419921876,0.6462764739990234,-0.5315051078796387,-1.3676676750183105
1682879952872551000,16.896551025390625,0.21266841888427734,0.3022273778915405,-0.9164786338806152
1682879952889423400,16.91342333984375,0.07056999206542969,1.5791261196136475,-3.7417588233947754
1682879952906291000,16.930291015625,-2.5311031341552734,2.0219626426696777,-0.8784880638122559
1682879952923169300,16.947169189453124,-4.263627529144287,2.3537275791168213,0.4801168441772461
1682879952940036900,16.964036865234377,-2.4605870246887207,0.31214195489883423,-0.04779863357543945
1682879952956909600,16.98090966796875,-1.8203835487365723,-0.3857300877571106,-0.10495424270629883
1682879952973790200,16.997790283203123,-1.428332805633545,-0.6759029030799866,-0.5912094116210938
1682879952990654000,17.014654052734375,-1.0591669082641602,-0.6657148599624634,-1.1158137321472168
1682879953007522600,17.0315224609375,-0.8067770004272461,-0.637848973274231,-1.3772196769714355
1682879953024395500,17.0483955078125,-0.7785220146179199,-0.46252548694610596,-1.4857101440429688
1682879953041266000,17.065265869140624,-1.0118613243103027,0.7866137027740479,-0.6331033706665039
1682879953058138400,17.082138427734375,-2.6127028465270996,0.24962541460990906,-0.8096284866333008
1682879953075006500,17.09900634765625,-3.371147632598877,-0.37512561678886414,-0.8906188011169434
1682879953091883800,17.1158837890625,-2.65346097946167,-0.8267877101898193,-0.6989192962646484
1682879953108751600,17.132751708984376,-1.3726024627685547,-0.7418286800384521,-0.43639707565307617
1682879953125624000,17.1496240234375,-1.1335220336914062,-0.549240231513977,-0.5995264053344727
1682879953142494700,17.16649462890625,-1.1293816566467285,-0.5439401865005493,-0.8840065002441406
1682879953159355400,17.18335546875,-1.102776050567627,-0.6075682640075684,-0.9445977210998535
1682879953176226600,17.2002265625,-1.5944032669067383,-0.640700101852417,-1.0192575454711914
1682879953193112800,17.21711279296875,-1.7880287170410156,-0.7631527185440063,-1.4723000526428223
1682879953209980700,17.233980712890624,-1.058547019958496,-0.7318446636199951,-2.315319538116455
1682879953226853600,17.250853515625,0.4240593910217285,0.7179741859436035,-2.891012191772461
1682879953243723500,17.2677236328125,0.8050403594970703,1.839002013206482,-1.938951015472412
1682879953260587300,17.284587158203124,-0.16124534606933594,2.0974769592285156,-0.39206409454345703
1682879953277466600,17.301466552734375,-0.12936830520629883,1.2369822263717651,0.007404327392578125
1682879953294332200,17.318332275390624,-0.3960604667663574,0.4024841785430908,-0.2311878204345703
1682879953311207000,17.33520703125,-0.8871102333068848,-0.16303610801696777,-0.6336054801940918
1682879953328072000,17.352072021484375,-0.9533381462097168,-0.3587353229522705,-0.5488886833190918
1682879953344955000,17.368954833984375,-0.1130685806274414,-0.4378523826599121,-0.08331823348999023
1682879953361825000,17.385824951171877,0.4525613784790039,-0.4598226547241211,0.20406150817871094
1682879953378695400,17.4026953125,0.5557761192321777,-0.2806520462036133,0.41466569900512695
1682879953395568000,17.419568115234377,0.4410386085510254,0.02832198143005371,0.6618762016296387
1682879953412438500,17.4364384765625,0.49555015563964844,0.14820384979248047,0.9694957733154297
1682879953429311000,17.45331103515625,0.7857818603515625,0.18089675903320312,1.3126282691955566
1682879953446180900,17.470180908203126,1.149634838104248,0.345461368560791,1.6426548957824707
1682879953463054600,17.4870546875,1.4094815254211426,0.608534574508667,1.8520917892456055
1682879953479924500,17.503924560546874,1.5493535995483398,0.8779158592224121,1.9578776359558105
1682879953496797200,17.520797119140624,1.7748651504516602,1.054795265197754,2.129650592803955
1682879953513667300,17.537667236328126,2.1101601123809814,1.1798551082611084,2.355123519897461
1682879953530529800,17.55452978515625,2.5392942428588867,1.4420548677444458,2.5986413955688477
1682879953547401000,17.57140087890625,2.8381216526031494,1.7396711111068726,2.7882142066955566
1682879953564283100,17.588283203125,2.796583890914917,1.8924413919448853,2.801222324371338
1682879953581153300,17.6051533203125,2.173536539077759,1.6723902225494385,2.4323196411132812
1682879953598025700,17.622025634765624,1.893153190612793,1.4594173431396484,2.1052803993225098
1682879953614897000,17.63889697265625,1.9547710418701172,1.4251827001571655,2.130549430847168
1682879953631768000,17.65576806640625,1.8521904945373535,1.3251614570617676,2.301942825317383
1682879953648639500,17.672639404296874,1.5957255363464355,1.1026273965835571,2.178637981414795
1682879953665512000,17.689511962890624,1.01884126663208,0.7116837501525879,1.7905817031860352
1682879953682382000,17.706382080078125,0.6988511085510254,0.43651604652404785,1.5443410873413086
1682879953699254800,17.7232548828125,0.5834078788757324,0.3381514549255371,1.558784008026123
1682879953716122400,17.740122314453124,0.05453777313232422,0.23514795303344727,1.2946786880493164
1682879953733000400,17.75700048828125,-0.9069681167602539,-0.03814554214477539,0.3737168312072754
1682879953749868300,17.773868408203125,-1.9516878128051758,-0.3451988697052002,-0.8587546348571777
1682879953766740700,17.79074072265625,-1.8737683296203613,-0.19531607627868652,-1.545830249786377
1682879953783611100,17.807611083984376,-0.27887487411499023,-0.2911067008972168,-1.5341105461120605
1682879953800473000,17.82447314453125,1.1645116806030273,-0.9635260105133057,-1.4226150512695312
1682879953817354000,17.84135400390625,1.3443760871887207,-1.6002578735351562,-1.4546966552734375
1682879953834226400,17.858226318359375,0.3832526206970215,-1.5749764442443848,-0.913395881652832
1682879953851097000,17.87509716796875,-0.8466935157775879,-0.6986782550811768,-0.5350461006164551
1682879953867968500,17.891968505859374,-1.3142166137695312,0.1724306344985962,-0.7568440437316895
1682879953884841700,17.908841796875,-1.171346664428711,0.5425243377685547,-1.5132560729980469
1682879953901710300,17.92571044921875,0.8737425804138184,-2.676037311553955,-3.681270122528076
1682879953918585600,17.942585693359376,-4.036754608154297,4.767437934875488,-0.8614521026611328
1682879953935455500,17.95945556640625,-0.6043171882629395,-1.5594133138656616,-1.8488683700561523
1682879953952321500,17.976321533203127,-0.9567041397094727,-0.12661433219909668,-0.16288280487060547
1682879953969203000,17.993202880859375,-0.8053240776062012,0.07531261444091797,0.3209218978881836
1682879953986065400,18.0100654296875,-0.5887365341186523,-0.1267310380935669,0.19440460205078125
1682879954002942700,18.026942626953126,-0.31140613555908203,-0.4610788822174072,-0.23374032974243164
1682879954019815000,18.04381494140625,-0.08502721786499023,-0.9799838066101074,-0.387906551361084
1682879954036684500,18.0606845703125,-0.021749019622802734,-1.2372280359268188,-0.3451199531555176
1682879954053555000,18.077554931640623,-0.35322046279907227,-1.0669491291046143,-0.7518024444580078
1682879954070417000,18.0944169921875,-1.195298194885254,-0.6942968368530273,-1.3975090980529785
1682879954087298000,18.111298095703123,-1.2971348762512207,0.6488679051399231,-0.7158122062683105
1682879954104170500,18.12817041015625,-1.654313087463379,0.061237633228302,-0.7118487358093262
1682879954121038600,18.14503857421875,-1.6177921295166016,-0.47038668394088745,-0.7747840881347656
1682879954137916200,18.161916259765626,-1.3556513786315918,-0.6322348713874817,-0.6289753913879395
1682879954154784000,18.178783935546875,-1.056070327758789,-0.4524783492088318,-0.5274548530578613
1682879954171656200,18.19565625,-1.2023272514343262,-0.2992967367172241,-0.6939201354980469
1682879954188526600,18.212526611328126,-1.3914823532104492,-0.2965652346611023,-0.780672550201416
1682879954205399600,18.229399658203125,-1.6514601707458496,-0.39718925952911377,-0.7428154945373535
1682879954222270000,18.24627001953125,-1.684633731842041,-0.589457631111145,-0.7669029235839844
1682879954239142400,18.263142333984376,-1.4288949966430664,-1.0786094665527344,-1.078162670135498
1682879954256013000,18.280012939453126,-0.5550670623779297,-1.4525569677352905,-2.0152368545532227
1682879954272885200,18.29688525390625,0.23127269744873047,-0.2443166971206665,-2.757333755493164
1682879954289755600,18.313755615234374,0.10208845138549805,1.2323024272918701,-2.174894332885742
1682879954306628000,18.330628173828124,-0.8907356262207031,1.7888089418411255,-1.0520687103271484
1682879954323498800,18.347498779296874,-0.390228271484375,1.0515152215957642,-0.40308332443237305
1682879954340355800,18.36435595703125,-0.09090518951416016,0.1475999355316162,-0.5115838050842285
1682879954357241900,18.381241943359374,0.06853485107421875,-0.6315205097198486,-0.5404119491577148
1682879954374114000,18.398114013671876,0.2419586181640625,-1.017714023590088,-0.23625707626342773
1682879954390984400,18.414984375,-0.462738037109375,-0.7976884841918945,-0.18537282943725586
1682879954407857000,18.43185693359375,-1.1058382987976074,-0.30550217628479004,-0.4033026695251465
1682879954424727300,18.448727294921873,-0.8891611099243164,0.0046100616455078125,-0.5695281028747559
1682879954441600300,18.465600341796875,0.23051166534423828,0.12121224403381348,-0.15394830703735352
1682879954458470700,18.482470703125,0.6100091934204102,0.1260819435119629,0.28504037857055664
1682879954475343000,18.499343017578123,0.5605964660644531,0.10719609260559082,0.5729050636291504
1682879954492213500,18.516213623046873,0.4229164123535156,0.15833067893981934,0.8630976676940918
1682879954509085700,18.533085693359375,-0.21320724487304688,0.4381382465362549,0.735804557800293
1682879954525954000,18.5499541015625,-0.17700576782226562,0.7489361763000488,0.26513004302978516
1682879954542831000,18.5668310546875,0.8968710899353027,0.8603017330169678,0.23727130889892578
1682879954559698400,18.583698486328124,1.8404016494750977,1.0294485092163086,0.7238144874572754
1682879954576572200,18.600572265625,2.3674542903900146,1.2298378944396973,1.7677183151245117
1682879954593424400,18.61742431640625,2.6178693771362305,1.668105125427246,2.608084201812744
1682879954610304300,18.63430419921875,2.6907920837402344,1.887710690498352,3.0259432792663574
1682879954627185200,18.65118505859375,2.6107332706451416,1.9108104705810547,3.0721864700317383
1682879954644057600,18.6680576171875,2.473527431488037,1.8564456701278687,2.793342113494873
1682879954660940300,18.684940185546875,2.14882230758667,1.953368902206421,2.4051756858825684
1682879954677802500,18.701802490234375,1.6174192428588867,2.193420886993408,2.291646957397461
1682879954694671400,18.71867138671875,1.4218049049377441,2.315222978591919,2.4693756103515625
1682879954711533000,18.735532958984376,1.766219139099121,1.9622089862823486,2.912720203399658
1682879954728414500,18.75241455078125,1.852738380432129,1.3394901752471924,2.8784751892089844
1682879954745286400,18.769286376953126,1.7041058540344238,0.6225001811981201,2.593318462371826
1682879954762157000,18.786156982421875,1.5538649559020996,0.1064462661743164,2.4523024559020996
1682879954779026700,18.803026611328125,1.0524277687072754,-0.20831084251403809,2.196643829345703
1682879954795896800,18.819896728515626,0.26450681686401367,-0.2792038917541504,1.613257884979248
1682879954812776000,18.83677587890625,0.06201887130737305,-0.38860058784484863,1.0874595642089844
1682879954829643300,18.853643310546875,0.516082763671875,-0.5558233261108398,0.8251228332519531
1682879954846499000,18.8704990234375,0.03137350082397461,-0.7313613891601562,0.4230160713195801
1682879954863385900,18.8873857421875,-1.1791892051696777,-1.0726513862609863,-0.36304569244384766
1682879954880258300,18.90425830078125,-2.5340166091918945,-1.1970388889312744,-1.649916172027588
1682879954897130200,18.921130126953123,-2.7737154960632324,-0.7100427150726318,-2.64853572845459
1682879954913998800,18.937998779296876,-1.3685274124145508,0.04685711860656738,-2.6402664184570312
1682879954930874000,18.9548740234375,0.20879602432250977,0.2247563600540161,-2.1065120697021484
1682879954947744800,18.971744873046877,1.1695542335510254,-0.21910643577575684,-1.5718050003051758
1682879954964614700,18.98861474609375,1.07763671875,-0.8405253887176514,-0.995152473449707
1682879954981487400,19.0054873046875,-0.4979677200317383,-0.6783698797225952,-1.0782661437988281
1682879954998357500,19.022357421875,-1.8404393196105957,-0.032889485359191895,-1.417121410369873
1682879955015226000,19.03922607421875,-1.8059415817260742,0.3051888942718506,-1.6982240676879883
1682879955032100600,19.0561005859375,3.069141149520874,-4.416052341461182,-4.831762790679932
1682879955048973300,19.072973388671876,-2.477710723876953,3.2181310653686523,0.12452983856201172
1682879955065843500,19.089843505859374,-0.6117186546325684,-0.38698339462280273,0.003147125244140625
1682879955082716200,19.106716064453124,-0.9711184501647949,-0.49597954750061035,-0.17702817916870117
1682879955099586600,19.123586669921874,-0.9643745422363281,-0.5343915224075317,-0.1293168067932129
1682879955116456200,19.140456298828123,-0.2409195899963379,-0.33703887462615967,-0.004010200500488281
1682879955133332200,19.157332275390626,0.321810245513916,-0.3739791512489319,-0.2727084159851074
1682879955150200000,19.174199951171875,0.44952392578125,-0.6689202785491943,-0.5717554092407227
1682879955167072300,19.191072265625,0.3898024559020996,-0.9384266138076782,-0.5511918067932129
1682879955183942400,19.2079423828125,0.2092761993408203,-0.9102117419242859,-0.2519645690917969
1682879955200818200,19.224818115234374,-0.1798090934753418,-0.11413735151290894,0.005331516265869141
1682879955217687800,19.241687744140624,-1.0863924026489258,0.27908438444137573,-0.16636228561401367
1682879955234555400,19.258555419921876,-1.917220115661621,0.5176341533660889,-0.47611474990844727
1682879955251433500,19.27543359375,-2.5323028564453125,0.6604152321815491,-0.6917567253112793
1682879955268301000,19.292301025390625,-2.564256191253662,0.34762319922447205,-0.8526082038879395
1682879955285170200,19.309170166015626,-2.2499799728393555,0.031040489673614502,-1.1040019989013672
1682879955302044000,19.3260439453125,-1.7063288688659668,-0.40441757440567017,-1.2133588790893555
1682879955318920700,19.342920654296876,-1.0878539085388184,-1.0745460987091064,-1.1564440727233887
1682879955335787000,19.359787109375,-0.8237919807434082,-1.685792088508606,-1.0519452095031738
1682879955352659700,19.37665966796875,-0.9892401695251465,-1.7920124530792236,-1.0221281051635742
1682879955369530000,19.393530029296876,-1.3780956268310547,-1.344099521636963,-1.3441028594970703
1682879955386402800,19.41040283203125,-1.3904452323913574,-0.8773066997528076,-2.115231513977051
1682879955403273200,19.427273193359376,-0.4301161766052246,0.408868670463562,-2.594280242919922
1682879955420139300,19.44413916015625,0.5289034843444824,1.7070515155792236,-2.230083465576172
1682879955437013800,19.461013671875,0.4785747528076172,2.359937906265259,-1.0338821411132812
1682879955453890600,19.477890625,-0.43527936935424805,2.228090286254883,-0.20225954055786133
1682879955470759000,19.494759033203124,-0.6042160987854004,0.6178408861160278,-0.26090478897094727
1682879955487631600,19.511631591796874,-0.871279239654541,-0.2319190502166748,-0.7366876602172852
1682879955504502000,19.528501953125,-0.9640893936157227,-0.5367825031280518,-0.874763011932373
1682879955521374500,19.54537451171875,-0.48819446563720703,-0.7084991931915283,-0.5088882446289062
1682879955538242300,19.5622421875,0.4102787971496582,-0.9320170879364014,0.019959449768066406
1682879955555119900,19.579119873046874,1.4093070030212402,-1.0746631622314453,0.4481372833251953
1682879955571987700,19.59598779296875,1.4192485809326172,-0.870537281036377,0.8691048622131348
1682879955588860000,19.61285986328125,0.5160541534423828,-0.2522580623626709,1.220426082611084
1682879955605730600,19.62973046875,-0.26393985748291016,0.24768710136413574,1.3453550338745117
1682879955622603300,19.646603271484373,-0.2126765251159668,0.5492711067199707,1.4821820259094238
1682879955639470800,19.663470947265626,0.4222073554992676,0.69535231590271,1.6336588859558105
1682879955656344300,19.68034423828125,1.0483994483947754,0.9345817565917969,1.8778648376464844
1682879955673218600,19.697218505859375,1.8192615509033203,1.136143684387207,2.219773769378662
1682879955690088700,19.714088623046877,2.5160248279571533,1.4015450477600098,2.499640464782715
1682879955706959400,19.73095947265625,2.8130905628204346,1.9372352361679077,2.6188669204711914
1682879955723832000,19.74783203125,2.578155517578125,2.4774460792541504,2.535898208618164
1682879955740691700,19.764691650390624,2.195826292037964,2.6567745208740234,2.4082083702087402
1682879955757575200,19.7815751953125,2.1384165287017822,2.6396937370300293,2.412233352661133
1682879955774445600,19.798445556640626,2.3219525814056396,2.4470839500427246,2.4554476737976074
1682879955791317800,19.81531787109375,2.384892463684082,1.9976983070373535,2.4410247802734375
1682879955808188400,19.8321884765625,2.1756656169891357,1.3875868320465088,2.240328788757324
1682879955825060400,19.849060302734376,1.815295696258545,0.6877574920654297,2.083346366882324
1682879955841931000,19.865930908203126,1.388685703277588,0.09644699096679688,2.014932632446289
1682879955858803700,19.8828037109375,0.8194832801818848,-0.3782923221588135,1.905646800994873
1682879955875674000,19.899674072265626,0.1824202537536621,-0.6170618534088135,1.7582640647888184
1682879955892533800,19.91653369140625,-0.7259125709533691,-0.48366570472717285,1.3510403633117676
1682879955909417000,19.9334169921875,-1.1075019836425781,-0.1390535831451416,0.6991744041442871
1682879955926286800,19.950286865234375,-0.7467823028564453,-0.2594003677368164,0.1989760398864746
1682879955943162000,19.967162109375,-0.2256307601928711,-0.7093336582183838,-0.09066200256347656
1682879955960032500,19.984032470703124,-0.34210634231567383,-1.4067423343658447,-0.8292088508605957
1682879955976903200,20.000903076171873,-1.3403825759887695,-1.6328725814819336,-1.9812192916870117
1682879955993765000,20.01776513671875,-1.4360013008117676,-0.996553897857666,-2.5588622093200684
1682879956010645800,20.034645751953125,-0.4065403938293457,-0.3183321952819824,-2.224238395690918
1682879956027518500,20.0515185546875,0.25382518768310547,-0.027100563049316406,-1.9680867195129395
1682879956044388600,20.068388671875,4.628134250640869,-5.6559858322143555,-5.929285526275635
1682879956061261000,20.085260986328127,-3.098653793334961,5.836465835571289,-0.5230722427368164
1682879956078131700,20.102131591796876,-0.14999103546142578,-2.0474414825439453,-2.319398880004883
1682879956095004000,20.11900390625,-1.8235764503479004,-0.020940661430358887,-0.5554533004760742
1682879956111874600,20.13587451171875,-2.478518486022949,0.24243825674057007,-0.15305566787719727
1682879956128747300,20.152747314453126,-2.0352959632873535,-0.16805803775787354,-0.28961801528930664
1682879956145605600,20.169605712890625,-1.049177646636963,-0.8611363768577576,-0.5649299621582031
1682879956162489900,20.18648974609375,-0.3759465217590332,-1.3917081356048584,-0.7204627990722656
1682879956179360300,20.2033603515625,-0.5038819313049316,-1.1647142171859741,-1.0498981475830078
1682879956196230100,20.220230224609374,-1.0604782104492188,0.7775564193725586,-0.881739616394043
1682879956213103000,20.23710302734375,-2.2786707878112793,0.31053370237350464,-0.9241800308227539
1682879956229978600,20.253978515625,-2.1279611587524414,-0.7229255437850952,-0.6937475204467773
1682879956246846200,20.27084619140625,-1.4382381439208984,-1.4701603651046753,-0.5711956024169922
1682879956263718700,20.28771875,-1.2362637519836426,-1.5466182231903076,-0.6090912818908691
1682879956280579800,20.304579833984373,-1.5760498046875,-0.6496363878250122,-0.7886061668395996
1682879956297461500,20.32146142578125,-1.9202604293823242,0.1559617519378662,-1.1399431228637695
1682879956314332000,20.338331787109375,-1.8597931861877441,0.0768810510635376,-1.351266860961914
1682879956331204600,20.35520458984375,-0.9316301345825195,-0.8325443267822266,-2.1329293251037598
1682879956348062200,20.372062255859376,0.2355818748474121,-0.3636026382446289,-2.90031099319458
1682879956364941000,20.388941162109376,0.12839508056640625,1.1826859712600708,-1.7069249153137207
1682879956381819400,20.4058193359375,-0.1587371826171875,1.294512391090393,-0.3348374366760254
1682879956398690300,20.422690185546877,-0.27144813537597656,0.5571392774581909,-0.532618522644043
1682879956415560400,20.439560546875,-0.7250676155090332,-0.010090351104736328,-1.1678037643432617
1682879956432433200,20.45643310546875,-0.21740198135375977,-0.6707205772399902,-1.1860966682434082
1682879956449303600,20.473303466796875,0.4654083251953125,-0.9853756427764893,-0.8677792549133301
1682879956466173000,20.4901728515625,0.3804020881652832,-0.9452390670776367,-0.6871004104614258
1682879956483050000,20.507050048828123,-0.13253259658813477,-0.664696455001831,-0.4325122833251953
1682879956499919000,20.523919189453125,0.11510562896728516,-0.28244590759277344,0.17468833923339844
1682879956516786700,20.54078662109375,0.333096981048584,-0.02626180648803711,0.717656135559082
1682879956533664500,20.55766455078125,0.22732114791870117,0.07935857772827148,1.0292024612426758
1682879956550521900,20.57452197265625,0.12221384048461914,0.026669025421142578,1.1000337600708008
1682879956567403300,20.5914033203125,0.07108736038208008,0.018661022186279297,1.0596957206726074
1682879956584277500,20.608277587890626,0.37034130096435547,0.35210466384887695,1.0686116218566895
1682879956601148000,20.62514794921875,1.5084223747253418,0.899179220199585,1.5651354789733887
1682879956618017300,20.642017333984374,2.4610397815704346,1.5170302391052246,2.4048495292663574
1682879956634891500,20.6588916015625,3.005805253982544,2.0225772857666016,3.150237560272217
1682879956651761000,20.675760986328125,3.128066301345825,2.2936458587646484,3.706014633178711
1682879956668630800,20.692630859375,2.821742296218872,2.73064923286438,3.9514291286468506
1682879956685507000,20.709507080078126,2.1277403831481934,3.1359078884124756,3.5859713554382324
1682879956702376700,20.726376708984375,1.5673737525939941,2.8012051582336426,2.591111183166504
1682879956719244500,20.74324462890625,1.6765704154968262,2.3094394207000732,1.7753562927246094
1682879956736120800,20.760120849609375,2.2253661155700684,1.7883634567260742,1.6224031448364258
1682879956752990500,20.776990478515625,2.5770606994628906,1.2437790632247925,2.071066379547119
1682879956769862100,20.793862060546875,2.4382705688476562,0.9233355522155762,2.4453930854797363
1682879956786733000,20.810733154296877,1.9363017082214355,0.334958553314209,2.3636012077331543
1682879956803605200,20.827605224609375,1.341428279876709,-0.3552730083465576,1.8581938743591309
1682879956820465200,20.844465087890626,0.26108312606811523,-0.5390386581420898,1.0921320915222168
1682879956837348400,20.861348388671875,-0.47878122329711914,-0.16968131065368652,0.751434326171875
1682879956854218500,20.878218505859376,-1.2399568557739258,0.07378959655761719,0.40901613235473633
1682879956871091000,20.895091064453126,-1.4531688690185547,-0.5980899333953857,-0.28357410430908203
1682879956887950800,20.911950927734374,-1.5851826667785645,-1.3339219093322754,-1.0535507202148438
1682879956904833800,20.928833740234374,-1.934122085571289,-1.5558485984802246,-1.6308484077453613
1682879956921704400,20.945704345703124,-1.4444150924682617,-1.234323263168335,-1.8912887573242188
1682879956938572500,20.962572509765625,-0.3290591239929199,-0.6068878173828125,-1.9221887588500977
1682879956955447600,20.979447509765624,0.8617568016052246,-0.05127239227294922,-1.5664877891540527
1682879956972319700,20.99631982421875,0.8653697967529297,0.4154810905456543,-1.0155296325683594
1682879956989190000,21.01318994140625,3.287987232208252,-2.7574591636657715,-6.104471206665039
1682879957006061000,21.03006103515625,-3.0373072624206543,2.329739570617676,-0.7993969917297363
1682879957022934800,21.046934814453124,-4.791879653930664,1.4530576467514038,0.13951444625854492
1682879957039805700,21.0638056640625,-3.245044708251953,-0.14850234985351562,-0.23670196533203125
1682879957056676600,21.080676513671875,-2.2125778198242188,-0.5148899555206299,-0.32646656036376953
1682879957073548000,21.097548095703125,-1.4215497970581055,-0.7468430399894714,-0.8970255851745605
1682879957090408400,21.114408447265625,-0.6537742614746094,-1.0448548793792725,-1.0441222190856934
1682879957107291100,21.131291015625,-0.0029630661010742188,-1.121335506439209,-0.9499711990356445
1682879957124174800,21.1481748046875,0.2654685974121094,0.521655797958374,-0.31975364685058594
1682879957141034200,21.1650341796875,-1.1014699935913086,0.6731566190719604,-0.6431369781494141
1682879957157904600,21.181904541015626,-2.6042041778564453,0.0861017107963562,-0.617551326751709
1682879957174769200,21.19876904296875,-2.673804759979248,-0.5220075249671936,-0.5214505195617676
1682879957191632600,21.215632568359375,-1.8600873947143555,-0.8614823818206787,-0.8476791381835938
1682879957208520000,21.23252001953125,-1.1494879722595215,-1.2283531427383423,-1.110630989074707
1682879957225391900,21.249391845703126,-0.772761344909668,-1.4169230461120605,-1.05051851272583
1682879957242249200,21.266249267578125,-0.940678596496582,-1.1348192691802979,-0.9834823608398438
1682879957259131100,21.283131103515625,-1.520686149597168,-0.8060019016265869,-1.2320027351379395
