time,seconds_elapsed,z,y,x
1682879936119105000,0.14310498046875,-0.8046622276306152,-0.8906415104866028,-0.13775011897087097
1682879936136056300,0.160056396484375,-0.6475171446800232,-1.4066699743270874,-1.0122036933898926
1682879936152943000,0.176943115234375,-0.45921793580055237,-1.4987578392028809,-1.6375770568847656
1682879936169797600,0.193797607421875,-0.17821992933750153,-1.9463694095611572,-2.1093177795410156
1682879936186679000,0.210678955078125,0.304210901260376,-2.2041544914245605,-2.401005744934082
1682879936203543800,0.227543701171875,0.8778133392333984,-2.459954261779785,-2.2928826808929443
1682879936220417800,0.244417724609375,1.2935070991516113,-2.755765914916992,-1.8118263483047485
1682879936237296400,0.26129638671875,1.3581061363220215,-2.1261165142059326,-1.2049317359924316
1682879936254168300,0.278168212890625,0.932485818862915,-1.2131783962249756,-0.8442157506942749
1682879936271039000,0.2950390625,0.28435778617858887,-0.09285151958465576,-0.38240164518356323
1682879936287911700,0.31191162109375,-0.4046982228755951,0.5763513445854187,0.3168863356113434
1682879936304781600,0.328781494140625,-0.6737843751907349,0.43218716979026794,0.8865181803703308
1682879936321654300,0.345654296875,-0.6998988389968872,-0.12461651116609573,0.7333437204360962
1682879936338524400,0.3625244140625,-0.7757988572120667,-0.9960157871246338,0.32009339332580566
1682879936355396600,0.379396728515625,-0.6684392690658569,-1.8289304971694946,0.4381431043148041
1682879936372267800,0.396267822265625,-0.29596421122550964,-2.623818874359131,0.988990843296051
1682879936389139700,0.4131396484375,-0.002138028386980295,-3.0611984729766846,1.191950798034668
1682879936406010000,0.430010009765625,-0.18570303916931152,-3.3478469848632812,0.8938485980033875
1682879936422880000,0.4468798828125,-0.7037167549133301,-2.803260564804077,0.37171149253845215
1682879936439755800,0.463755859375,-0.8333728909492493,-2.0358612537384033,0.12599095702171326
1682879936456624400,0.480624267578125,-0.499382346868515,-1.6742289066314697,0.2808452844619751
1682879936473496000,0.49749609375,-0.30863967537879944,-1.7405078411102295,0.3888157308101654
1682879936490377000,0.514376953125,-0.21120665967464447,-1.5094480514526367,0.3019201457500458
1682879936507238400,0.53123828125,-0.055894169956445694,-0.9344711303710938,0.08964447677135468
1682879936524111000,0.548111083984375,0.16401731967926025,-0.010537425056099892,-0.2525927722454071
1682879936540981200,0.564981201171875,0.08231408894062042,0.4934264123439789,-0.46379944682121277
1682879936557853400,0.581853515625,-0.2893974184989929,0.47800204157829285,-0.23273965716362
1682879936574723600,0.5987236328125,-0.4034765064716339,0.5169447064399719,0.055283304303884506
1682879936591596300,0.61559619140625,-0.17073683440685272,0.42348232865333557,0.1595885455608368
1682879936608466400,0.632466552734375,0.06200282275676727,0.029932396486401558,0.10491610318422318
1682879936625338400,0.64933837890625,0.14263702929019928,-0.2177734673023224,-0.038179077208042145
1682879936642210300,0.666210205078125,0.07238753139972687,-0.156686931848526,-0.11438451707363129
1682879936659081700,0.683081787109375,-0.14569136500358582,0.1768454909324646,0.06627888232469559
1682879936675951900,0.699951904296875,-0.23777928948402405,0.15943582355976105,0.1941024363040924
1682879936692821000,0.716821044921875,-0.014355333521962166,-0.1609629988670349,-0.05161811411380768
1682879936709694700,0.73369482421875,0.23777928948402405,-0.2750420868396759,-0.15592335164546967
1682879936726557000,0.750556884765625,0.25366178154945374,-0.11652254313230515,-0.06673702597618103
1682879936743435000,0.76743505859375,0.023060163483023643,0.15622878074645996,0.012828170321881771
1682879936760308000,0.784307861328125,-0.22418753802776337,0.1661553531885147,0.29367345571517944
1682879936777180700,0.8011806640625,-0.21930062770843506,0.2817615866661072,0.4335615932941437
1682879936794052900,0.818052978515625,-0.06780604273080826,0.12629638612270355,0.30802878737449646
1682879936810920400,0.83492041015625,0.10201449692249298,-0.1235474944114685,0.08674286305904388
1682879936827798000,0.851798095703125,0.17791450023651123,-0.12370020896196365,-0.05054909735918045
1682879936844665900,0.868665771484375,-0.010231993161141872,-0.09025534242391586,0.040622539818286896
1682879936861538600,0.88553857421875,-0.1459967941045761,-0.04948008432984352,0.0659734457731247
1682879936878406100,0.90240625,-0.14523321390151978,0.07192938029766083,0.06719517707824707
1682879936895284000,0.919283935546875,-0.020005837082862854,0.0731511116027832,0.05421429127454758
1682879936912151600,0.936151611328125,0.07070764899253845,0.11239920556545258,-0.027183502912521362
1682879936929024000,0.95302392578125,0.040164388716220856,0.04932736977934837,-0.005345070734620094
1682879936945892000,0.96989208984375,0.009010262787342072,-0.05345070734620094,0.03222314268350601
1682879936962768400,0.986768310546875,0.06658431142568588,-0.05864306539297104,0.01114829070866108
1682879936979637000,1.003636962890625,0.1014036312699318,0.03588833287358284,0.027183502912521362
1682879936996509700,1.020509765625,0.06154467165470123,0.11759155988693237,0.018325956538319588
1682879937013375200,1.037375244140625,-0.08124507963657379,0.04993823543190956,-0.015577063895761967
1682879937030252000,1.054251953125,-0.19303341209888458,0.10674870014190674,-0.036041051149368286
1682879937047122400,1.071122314453125,-0.13484850525856018,0.13240504264831543,0.009773843921720982
1682879937063994600,1.08799462890625,0.029016099870204926,0.10522153973579407,-0.07742717117071152
1682879937080847400,1.104847412109375,0.1420261710882187,0.0012217304902151227,-0.05467243865132332
1682879937097737700,1.12173779296875,0.16340644657611847,-0.15241087973117828,-0.02229658141732216
1682879937114608000,1.138608154296875,0.17256943881511688,-0.09789115190505981,-0.038637228310108185
1682879937131479000,1.15547900390625,0.166460782289505,0.014966198243200779,-0.08933904021978378
1682879937148352300,1.172352294921875,0.1134682223200798,-0.04046982154250145,-0.3594942092895508
1682879937165223000,1.189222900390625,0.09743300825357437,-0.004581489134579897,-0.31261029839515686
1682879937182093300,1.20609326171875,0.10949759185314178,-0.043676864355802536,-0.07360926270484924
1682879937198953700,1.22295361328125,0.17073683440685272,-0.04917465150356293,-0.061391957104206085
1682879937215839200,1.239839111328125,0.13057245314121246,-0.09254608303308487,-0.18096883594989777
1682879937232711400,1.25671142578125,0.07910704612731934,-0.02519819140434265,-0.2243402600288391
1682879937249579300,1.273579345703125,0.10674870014190674,0.04841107130050659,-0.2477058619260788
1682879937266451700,1.29045166015625,0.12629638612270355,-0.03405573591589928,-0.323147714138031
1682879937283311400,1.307311279296875,0.15103642642498016,-0.02474004216492176,-0.28298333287239075
1682879937300199200,1.32419921875,0.16493362188339233,0.06582073122262955,-0.2050980031490326
1682879937317064400,1.341064453125,0.20082195103168488,-0.056352317333221436,-0.30115658044815063
1682879937333924000,1.357924072265625,0.2987131178379059,-0.17928895354270935,-0.33918291330337524
1682879937350807300,1.374807373046875,0.3956879675388336,-0.12919799983501434,-0.4207334518432617
1682879937367666700,1.391666748046875,0.2955060601234436,-0.12553280591964722,-0.4283692538738251
1682879937384539400,1.408539306640625,0.18524488806724548,0.02168571576476097,-0.4056145250797272
1682879937401422300,1.42542236328125,0.11804971098899841,0.013286318629980087,-0.5283984541893005
1682879937418292500,1.44229248046875,0.1595885455608368,-0.018478672951459885,-0.5345070958137512
1682879937435154700,1.45915478515625,0.24846944212913513,0.08170322328805923,-0.6102544069290161
1682879937452032300,1.4760322265625,0.26145032048225403,-0.08949175477027893,-0.9531024694442749
1682879937468908800,1.49290869140625,0.3975205719470978,0.08674286305904388,-1.0645854473114014
1682879937485784600,1.50978466796875,0.5786421298980713,0.18219055235385895,-1.1287262439727783
1682879937502647600,1.5266474609375,0.6786713004112244,0.4306600093841553,-1.102917194366455
1682879937519521000,1.54352099609375,0.6556110978126526,0.6656904220581055,-1.2680035829544067
1682879937536380200,1.560380126953125,0.5410739183425903,0.06551529467105865,-1.6623170375823975
1682879937553266700,1.5772666015625,0.802524209022522,-0.05513058975338936,-1.8225164413452148
1682879937570138400,1.594138427734375,1.2661709785461426,-0.4158465266227722,-2.1262691020965576
1682879937587006500,1.61100634765625,1.4063645601272583,-0.6000223755836487,-1.9552268981933594
1682879937603879400,1.62787939453125,1.316567301750183,-0.42348232865333557,-1.8571830987930298
1682879937620749600,1.64474951171875,1.138958215713501,-0.3367394804954529,-2.356107234954834
1682879937637621800,1.661621826171875,1.2797627449035645,-0.7560984492301941,-3.5022432804107666
1682879937654492000,1.678491943359375,1.8040378093719482,-2.071444034576416,-5.290856838226318
1682879937671364600,1.695364501953125,2.5590672492980957,-3.4437527656555176,-6.666677951812744
1682879937688218600,1.712218505859375,3.283095359802246,-4.199087619781494,-7.666664123535156
1682879937705107500,1.729107421875,3.6169331073760986,-4.039346218109131,-8.01241397857666
1682879937721977000,1.74597705078125,3.6618316173553467,-3.1393892765045166,-7.998517036437988
1682879937738850600,1.7628505859375,3.4041993618011475,-1.5050193071365356,-6.869637966156006
1682879937755720400,1.779720458984375,2.830291509628296,0.07391469180583954,-5.527108669281006
1682879937772592600,1.796592529296875,2.202016592025757,0.8972083330154419,-4.686252593994141
1682879937789463000,1.813463134765625,1.5865697860717773,0.6869179606437683,-4.3455424308776855
1682879937806336800,1.830336669921875,0.6316346526145935,0.056352317333221436,-4.143957138061523
1682879937823195400,1.8471953125,-0.32849279046058655,-0.3006984293460846,-3.514307737350464
1682879937840065500,1.8640654296875,-1.1218540668487549,-0.1765400618314743,-2.5337162017822266
1682879937856950800,1.88095068359375,-1.4045319557189941,-0.7622070908546448,-1.5998560190200806
1682879937873821200,1.8978212890625,-1.5378532409667969,-2.2065980434417725,-1.0739010572433472
1682879937890691300,1.91469140625,-1.8471038341522217,-2.8150198459625244,-0.4996877610683441
1682879937907563800,1.931563720703125,-1.7522670030593872,-2.4602596759796143,0.15836681425571442
1682879937924434200,1.94843408203125,-1.1719449758529663,-1.8350391387939453,0.21960605680942535
1682879937941306600,1.965306640625,-0.7628179788589478,-1.2702943086624146,-0.4034765064716339
1682879937958174700,1.9821748046875,-0.984867513179779,-0.4411974251270294,-0.6742424964904785
1682879937975051800,1.9990517578125,-0.5858197808265686,0.3419318199157715,-0.20784689486026764
1682879937991919900,2.015919921875,-0.2623666226863861,0.13668109476566315,0.46670106053352356
1682879938008789200,2.032789306640625,-0.7985535860061646,-0.7675521969795227,1.0115928649902344
1682879938025665300,2.049665283203125,-1.1930198669433594,0.0806342139840126,1.4123204946517944
1682879938042535000,2.066534912109375,-2.1424572467803955,0.5436700582504272,1.1045970916748047
1682879938059402800,2.08340283203125,-2.7119362354278564,1.3096951246261597,0.4973970353603363
1682879938076277800,2.10027783203125,-1.3871222734451294,1.6172657012939453,-0.40714168548583984
1682879938093150500,2.117150390625,-0.4356996417045593,1.3767375946044922,-1.980883240699768
1682879938110017800,2.134017822265625,0.2142609804868698,3.1560351848602295,-1.0059423446655273
1682879938126893000,2.15089306640625,0.3978259861469269,2.462092399597168,-0.1569923609495163
1682879938143763000,2.167762939453125,0.8115344643592834,0.3549126982688904,0.43188172578811646
1682879938160624000,2.1846240234375,1.5554156303405762,-0.579405665397644,1.2994630336761475
1682879938177506000,2.201506103515625,1.747685432434082,-1.702786922454834,0.7693848013877869
1682879938194376700,2.218376708984375,1.8666514158248901,-1.733788251876831,1.154077172279358
1682879938211246000,2.23524609375,2.362215995788574,-0.46670106053352356,2.034639358520508
1682879938228121300,2.252121337890625,2.4327707290649414,0.3228422701358795,3.045926809310913
1682879938244991200,2.2689912109375,2.705522060394287,1.6314682960510254,3.9816195964813232
1682879938261862000,2.28586181640625,3.8038578033447266,3.933208703994751,4.20977783203125
1682879938278734000,2.302734130859375,4.801400661468506,4.070347785949707,2.699718952178955
1682879938295602700,2.319602783203125,5.41532039642334,3.657250165939331,0.4075998365879059
1682879938312478700,2.336478759765625,5.727930545806885,3.5717291831970215,-1.7241671085357666
1682879938329347300,2.353347412109375,5.636759281158447,3.032182455062866,-3.62105655670166
1682879938346217200,2.37021728515625,5.410280704498291,3.006678819656372,-4.8814239501953125
1682879938363085600,2.38708544921875,4.803538799285889,2.8654160499572754,-5.190522193908691
1682879938379962600,2.403962646484375,4.110970497131348,3.358842611312866,-4.968166828155518
1682879938396833000,2.4208330078125,3.240640163421631,4.533994674682617,-4.303851127624512
1682879938413705000,2.437705078125,2.648559093475342,3.3368513584136963,-2.484236240386963
1682879938430575400,2.454575439453125,3.5666894912719727,2.2377521991729736,-1.3785701990127563
1682879938447449600,2.47144970703125,3.3904547691345215,-3.5883750915527344,2.149634838104248
1682879938464316700,2.488316650390625,1.2498302459716797,-6.802900791168213,4.433201789855957
1682879938481190400,2.5051904296875,-0.963792622089386,-7.606493949890137,3.5491271018981934
1682879938498060800,2.522060791015625,-0.8921687006950378,-8.002639770507812,1.4679092168807983
1682879938514933500,2.53893359375,-0.07666359096765518,-6.817714214324951,-1.1117748022079468
1682879938531803600,2.5558037109375,1.0201449394226074,-2.9906435012817383,-5.3837080001831055
1682879938548676400,2.57267626953125,1.3949108123779297,-0.7953465580940247,-6.222731590270996
1682879938565546500,2.58954638671875,1.1563678979873657,0.8323038816452026,-5.648059844970703
1682879938582418700,2.606418701171875,0.5627595782279968,1.7857118844985962,-4.786739826202393
1682879938599289000,2.6232890625,0.14966198801994324,2.0030272006988525,-3.75223970413208
1682879938616160800,2.640160888671875,0.1488984078168869,1.557706356048584,-2.3455698490142822
1682879938633032400,2.657032470703125,0.5383250117301941,0.5626068711280823,-0.6598871946334839
1682879938649904400,2.673904296875,1.041067123413086,-0.27229318022727966,0.6899722814559937
1682879938666774500,2.6907744140625,1.322981357574463,-0.3550654351711273,1.3619240522384644
1682879938683647200,2.707647216796875,1.3547463417053223,0.05864306539297104,1.599397897720337
1682879938700508700,2.7245087890625,1.1916453838348389,0.7163922190666199,1.5036448240280151
1682879938717386800,2.74138671875,0.9471465349197388,1.383457064628601,1.136056661605835
1682879938734260500,2.758260498046875,0.7744244337081909,1.8646661043167114,0.5803219676017761
1682879938751132700,2.775132568359375,0.8845328688621521,2.016160726547241,0.09086620807647705
1682879938768010500,2.792010498046875,0.9056077003479004,0.8561276197433472,-0.41431936621665955
1682879938784875800,2.808875732421875,0.8126034736633301,-1.3510812520980835,-1.0028879642486572
1682879938801745700,2.82574560546875,0.5673410892486572,-2.3738224506378174,-1.0096075534820557
1682879938818607600,2.842607666015625,0.3634648323059082,-2.1291708946228027,-0.8379544019699097
1682879938835488300,2.85948828125,0.4331034719944,-1.6125315427780151,-0.8683449625968933
1682879938852356000,2.876356201171875,0.6834055185317993,-0.7389942407608032,-0.788016140460968
1682879938869230800,2.89323095703125,0.7887797355651855,0.4268420934677124,-0.5922338366508484
1682879938886106600,2.910106689453125,0.8512406945228577,1.1873693466186523,-0.6265950202941895
1682879938902971100,2.92697119140625,0.9492846131324768,1.324508547782898,-0.8729264140129089
1682879938919846100,2.94384619140625,0.7819074988365173,1.3712397813796997,-1.1424707174301147
1682879938936716500,2.960716552734375,0.43508878350257874,2.2991440296173096,-1.4999796152114868
1682879938953589000,2.977589111328125,0.3423899710178375,4.037208557128906,-1.9866864681243896
1682879938970449700,2.99444970703125,0.41630467772483826,3.9959750175476074,-2.0062341690063477
1682879938987331600,3.01133154296875,0.48426342010498047,2.805551290512085,-1.5395331382751465
1682879939004202200,3.0282021484375,0.6543893814086914,1.380402684211731,-0.821461021900177
1682879939021074700,3.04507470703125,0.8009970784187317,0.060322944074869156,-0.1768454909324646
1682879939037944800,3.06194482421875,0.7344127297401428,-0.9305005073547363,0.1765400618314743
1682879939054814200,3.078814208984375,0.504574716091156,-1.1731667518615723,0.23075434565544128
1682879939071679500,3.095679443359375,0.3845396637916565,-1.006095051765442,0.0734565481543541
1682879939088560400,3.112560302734375,0.4259257912635803,-1.1652255058288574,-0.11026117950677872
1682879939105430500,3.129430419921875,0.4651738703250885,-1.51158607006073,-0.16462817788124084
1682879939122302700,3.146302734375,0.4766276180744171,-1.5749633312225342,-0.08643743395805359
1682879939139173000,3.163173095703125,0.531147301197052,-0.9860892295837402,0.0685696229338646
1682879939156045800,3.1800458984375,0.5462662577629089,0.043676864355802536,0.2704605758190155
1682879939172916200,3.196916259765625,0.4680754840373993,0.6021603941917419,0.3223841190338135
1682879939189788400,3.213788330078125,0.38988474011421204,0.5291619896888733,0.13209961354732513
1682879939206658600,3.230658447265625,0.36071592569351196,0.32268956303596497,-0.21884247660636902
1682879939223531000,3.247531005859375,0.33719760179519653,0.2701551616191864,-0.5105306506156921
1682879939240398000,3.264398193359375,0.36590829491615295,0.5813909769058228,-0.5624541640281677
1682879939257274000,3.281274169921875,0.38209620118141174,1.0816895961761475,-0.3604104816913605
1682879939274144000,3.29814404296875,0.3017674386501312,1.145830512046814,-0.039706241339445114
1682879939291016400,3.315016357421875,0.1941024363040924,0.8952230215072632,0.23090706765651703
1682879939307876600,3.331876708984375,0.15042556822299957,0.7170031070709229,0.30085113644599915
1682879939324759300,3.34875927734375,0.23686300218105316,0.5820018649101257,0.10797043144702911
1682879939341630000,3.3656298828125,0.26633724570274353,0.33108896017074585,-0.18157969415187836
1682879939358502400,3.38250244140625,0.12140946835279465,0.10506882518529892,-0.4460843503475189
1682879939375372500,3.39937255859375,-0.1368338167667389,0.07727445662021637,-0.6235406994819641
1682879939392244200,3.416244140625,-0.3442225754261017,0.29917123913764954,-0.6386595964431763
1682879939409105400,3.43310546875,-0.3698789179325104,0.651945948600769,-0.5248859524726868
1682879939425973200,3.44997314453125,-0.4129449129104614,1.0088438987731934,-0.3240640163421631
1682879939442855400,3.46685546875,-0.5293147563934326,1.2101240158081055,-0.07727445662021637
1682879939459733200,3.483733154296875,-0.6765332818031311,1.2431107759475708,0.10247264802455902
1682879939476598300,3.500598388671875,-0.7735081315040588,0.7469354867935181,0.1010981947183609
1682879939493476000,3.51747607421875,-0.7903069257736206,-0.017562376335263252,0.02687807008624077
1682879939510330000,3.534330078125,-0.6786713004112244,-0.49693888425827026,-0.007635815534740686
1682879939527218400,3.551218505859375,-0.5829181671142578,-0.917672336101532,-0.058184914290905
1682879939544072000,3.568072021484375,-0.35934147238731384,-1.1548407077789307,-0.2396118938922882
1682879939560963000,3.584963134765625,-0.12293662875890732,-1.0018190145492554,-0.50335294008255
1682879939577829400,3.601829345703125,-0.08796459436416626,-0.5051855444908142,-0.7000515460968018
1682879939594701800,3.618701904296875,-0.10262536257505417,0.12629638612270355,-0.7915286421775818
1682879939611572000,3.635572021484375,0.12782354652881622,0.7379252314567566,-0.888961672782898
1682879939628444200,3.652444091796875,0.33796119689941406,1.471268892288208,-0.9237809777259827
1682879939645312000,3.66931201171875,0.3110831379890442,2.2006421089172363,-0.7018841505050659
1682879939662178800,3.6861787109375,0.30375275015830994,2.665357828140259,-0.33536502718925476
1682879939679057700,3.7030576171875,0.31459560990333557,2.4446825981140137,-0.020616702735424042
1682879939695927300,3.71992724609375,0.18310685455799103,1.2785409688949585,0.12324206531047821
1682879939712802600,3.736802490234375,-0.04214970022439957,-0.5426010489463806,-0.06551529467105865
1682879939729673000,3.7536728515625,-0.1267545372247696,-1.4715744256973267,-0.3309362530708313
1682879939746542800,3.77054296875,-0.20601430535316467,-1.105207920074463,-0.35903605818748474
1682879939763404800,3.78740478515625,-0.1722639948129654,-0.5952881574630737,-0.266184538602829
1682879939780275200,3.804275146484375,0.028099801391363144,-0.950506329536438,-0.1618792861700058
1682879939797158700,3.82115869140625,0.22250767052173615,-1.621999979019165,-0.003359758760780096
1682879939814028500,3.838028564453125,0.3672827184200287,-2.3409883975982666,0.1235474944114685
1682879939830904600,3.854904541015625,0.4544837474822998,-2.959336757659912,0.14340060949325562
1682879939847767300,3.871767333984375,0.503047525882721,-3.1813862323760986,0.11682797968387604
1682879939864644000,3.88864404296875,0.5965099334716797,-2.997668504714966,0.09224065393209457
1682879939881514200,3.90551416015625,0.8098546266555786,-2.6899452209472656,0.09712757170200348
1682879939898386400,3.922386474609375,1.05404794216156,-2.4607179164886475,0.21105393767356873
1682879939915256800,3.9392568359375,1.2176071405410767,-2.1849122047424316,0.44425174593925476
1682879939932129300,3.95612939453125,1.3240504264831543,-1.6238325834274292,0.8458956480026245
1682879939949000000,3.973,1.3164145946502686,-0.8439103364944458,1.3900238275527954
1682879939965872400,3.989872314453125,1.1856894493103027,-0.46868637204170227,1.8109099864959717
1682879939982739700,4.00673974609375,1.0742065906524658,-0.6249151229858398,2.0923662185668945
1682879939999612200,4.023612060546875,1.0482447147369385,-1.5891659259796143,2.188730239868164
1682879940016485400,4.0404853515625,1.0468703508377075,-3.14626145362854,2.0943515300750732
1682879940033360400,4.0573603515625,1.0873401165008545,-4.323856830596924,1.8038851022720337
1682879940050236000,4.07423583984375,1.146135926246643,-3.0072896480560303,1.2466232776641846
1682879940067101700,4.091101806640625,1.1207849979400635,0.44837507605552673,0.2626720666885376
1682879940083970000,4.107969970703125,0.8408560156822205,2.5534167289733887,-0.7113525867462158
1682879940100833000,4.1248330078125,0.5789475440979004,2.7035367488861084,-1.0607675313949585
1682879940117709000,4.141708984375,0.5053382515907288,2.18552303314209,-0.9028588533401489
1682879940134575400,4.158575439453125,0.6354525685310364,1.6215417385101318,-0.5998696684837341
1682879940151456000,4.1754560546875,0.6546948552131653,0.5874996781349182,-0.4427245855331421
1682879940168329200,4.1923291015625,0.38576140999794006,-0.8776606321334839,-0.5035057067871094
1682879940185201400,4.209201416015625,-0.05146539583802223,-2.1171061992645264,-0.7226535677909851
1682879940202067200,4.226067138671875,-0.3462078869342804,-2.699108123779297,-1.051146388053894
1682879940218944500,4.242944580078125,-0.4818199574947357,-1.9309450387954712,-1.479668378829956
1682879940235814100,4.259814208984375,-0.531147301197052,0.0682641938328743,-2.0815234184265137
1682879940252674300,4.27667431640625,-0.6672175526618958,2.1505510807037354,-2.55448579788208
1682879940269557000,4.293556884765625,-0.9625709056854248,3.4662020206451416,-2.7203357219696045
1682879940286428000,4.310427978515625,-1.1933252811431885,3.86418080329895,-2.6474900245666504
1682879940303299800,4.3272998046875,-1.0529789924621582,3.290731191635132,-2.4381158351898193
1682879940320160000,4.344159912109375,-0.5528330206871033,1.4776830673217773,-2.3324363231658936
1682879940337042700,4.361042724609375,-0.1742493063211441,-0.7350236177444458,-2.238515615463257
1682879940353912800,4.377912841796875,0.4567744731903076,-1.1018482446670532,-2.2925772666931152
1682879940370785500,4.39478564453125,1.408349871635437,1.6629278659820557,-3.068070650100708
1682879940387656200,4.41165625,0.0861319974064827,1.674839735031128,-1.6588045358657837
1682879940404515800,4.428515869140625,0.7422012686729431,3.871511220932007,-1.6061174869537354
1682879940421389000,4.44538916015625,0.7875580191612244,3.9327504634857178,-0.9601274728775024
1682879940438273000,4.46227294921875,0.8834638595581055,2.7505733966827393,-0.5760459303855896
1682879940455141400,4.479141357421875,0.90728759765625,1.211803913116455,-0.5238169431686401
1682879940471998500,4.49599853515625,0.8017606139183044,0.18249599635601044,-0.7002043128013611
1682879940488885200,4.51288525390625,0.6615670323371887,-0.28328874707221985,-0.9149234294891357
1682879940505756700,4.529756591796875,0.5155702829360962,-0.30802878737449646,-0.9816604256629944
1682879940522627300,4.54662744140625,0.37201693654060364,-0.07467827945947647,-0.8454375267028809
1682879940539500000,4.5635,0.22189679741859436,0.23365595936775208,-0.5861251950263977
1682879940556367000,4.5803671875,0.11010845750570297,0.40194934606552124,-0.34406983852386475
1682879940573245000,4.597244873046875,0.022907447069883347,0.37491855025291443,-0.23915374279022217
1682879940590105600,4.614105712890625,-0.07788532227277756,0.33658674359321594,-0.2770273983478546
1682879940606985000,4.63098486328125,-0.15943582355976105,0.49144110083580017,-0.3251330256462097
1682879940623852800,4.647852783203125,-0.1713477075099945,0.7386888265609741,-0.23777928948402405
1682879940640720000,4.664719970703125,-0.09392052888870239,0.9243918061256409,-0.035582900047302246
1682879940657598500,4.681598388671875,0.06383541971445084,0.8938485980033875,0.12476922571659088
1682879940674468000,4.698468017578125,0.15073099732398987,0.6467535495758057,0.1875356286764145
1682879940691343600,4.715343505859375,0.09300423413515091,0.16951510310173035,0.12095131725072861
1682879940708213500,4.732213623046875,-0.012217304669320583,-0.42271876335144043,0.032528575509786606
1682879940725081600,4.74908154296875,-0.01542434748262167,-0.8335255980491638,0.03634648025035858
1682879940741959200,4.765959228515625,0.025045474991202354,-1.0378600358963013,0.10644327104091644
1682879940758826800,4.78282666015625,0.09453139454126358,-1.0896308422088623,0.21074850857257843
1682879940775697000,4.79969677734375,0.08460483700037003,-1.0268645286560059,0.38240164518356323
1682879940792572400,4.816572509765625,-0.048258353024721146,-0.9677632451057434,0.6262896060943604
1682879940809442000,4.833442138671875,-0.2692388594150543,-0.9033169746398926,0.8715519905090332
1682879940826310000,4.850309814453125,-0.47021353244781494,-0.8181012868881226,1.0766500234603882
1682879940843191300,4.86719140625,-0.5955936312675476,-0.7907650470733643,1.2573133707046509
1682879940860055300,4.88405517578125,-0.6537785530090332,-0.9500481486320496,1.4246904850006104
1682879940876925200,4.90092529296875,-0.6860016584396362,-1.3213015794754028,1.5792393684387207
1682879940893800700,4.91780078125,-0.6919575929641724,-1.7345519065856934,1.7369953393936157
1682879940910670600,4.934670654296875,-0.6575964093208313,-2.080148935317993,1.9350683689117432
1682879940927538000,4.951537841796875,-0.48777589201927185,-2.1041252613067627,2.138333797454834
1682879940944415700,4.968415771484375,-0.1745547503232956,-1.6085609197616577,2.283872365951538
1682879940961283800,4.985283935546875,0.07177666574716568,-0.6085745096206665,2.269669771194458
1682879940978155800,5.00215576171875,0.21578814089298248,0.5600107312202454,1.9576704502105713
1682879940995026700,5.019026611328125,0.17577648162841797,1.3423763513565063,1.4016302824020386
1682879941011899000,5.03589892578125,0.0705549344420433,1.616654872894287,0.9674578309059143
1682879941028769300,5.052769287109375,0.04657847434282303,1.3532192707061768,0.7654141783714294
1682879941045641500,5.069641357421875,0.0705549344420433,0.6352998614311218,0.8113817572593689
1682879941062511900,5.086511962890625,0.013744467869400978,0.012980886735022068,0.9057604670524597
1682879941079384800,5.103384765625,-0.1342376321554184,-0.2093740701675415,0.8378016948699951
1682879941096252400,5.12025244140625,-0.24984388053417206,-0.24297164380550385,0.5662720799446106
1682879941113130000,5.1371298828125,-0.3271183371543884,-0.22082778811454773,0.21807889640331268
1682879941129998000,5.153998046875,-0.37140607833862305,-0.2921462953090668,-0.048716504126787186
1682879941146870500,5.17087060546875,-0.3701843321323395,-0.2977968156337738,-0.17577648162841797
1682879941163740400,5.187740478515625,-0.32757648825645447,-0.3425426781177521,-0.25793784856796265
1682879941180602600,5.2046025390625,-0.20357084274291992,-0.5106833577156067,-0.3868304193019867
1682879941197465300,5.22146533203125,-0.07024950534105301,-0.4560109078884125,-0.4683809280395508
1682879941214356000,5.23835595703125,0.06582073122262955,-0.14263702929019928,-0.4450153410434723
1682879941231226000,5.25522607421875,0.2831360399723053,0.1264491081237793,-0.42241331934928894
1682879941248099000,5.27209912109375,0.53328537940979,0.2600758671760559,-0.4619668424129486
1682879941264958700,5.288958740234375,0.7278459668159485,0.3845396637916565,-0.5006040930747986
1682879941281850600,5.3058505859375,0.8342891931533813,0.48808133602142334,-0.47678032517433167
1682879941298708500,5.32270849609375,0.8593347072601318,0.447000652551651,-0.38835757970809937
1682879941315584000,5.339583984375,0.831845760345459,0.27611109614372253,-0.2710714638233185
1682879941332454400,5.356454345703125,0.7583891749382019,0.10323622822761536,-0.1417207419872284
1682879941349327000,5.3733271484375,0.6363688707351685,-0.0507018156349659,-0.07177666574716568
1682879941366194700,5.390194580078125,0.49586987495422363,-0.24862214922904968,-0.15943582355976105
1682879941383072500,5.407072509765625,0.37262779474258423,-0.4280638098716736,-0.3943135142326355
1682879941399940000,5.423940185546875,0.25442537665367126,-0.5688682794570923,-0.640644907951355
1682879941416812500,5.4408125,2.5312728881835938,3.26629638671875,-3.0378329753875732
1682879941433678800,5.457678955078125,0.7971791625022888,2.4297165870666504,-2.130239725112915
1682879941450567700,5.474567626953125,1.163851022720337,2.749657154083252,-2.099391222000122
1682879941467426000,5.491426025390625,0.9115636348724365,1.966986060142517,-1.416596531867981
1682879941484307500,5.508307373046875,0.7971791625022888,1.6617062091827393,-0.9870055317878723
1682879941501165600,5.52516552734375,0.7730499505996704,1.416596531867981,-0.654542088508606
1682879941518043000,5.54204296875,0.7334964275360107,1.2275336980819702,-0.39614611864089966
1682879941534902800,5.55890283203125,0.608421802520752,1.1215485334396362,-0.21670444309711456
1682879941551783700,5.57578369140625,0.4761694669723511,1.067945122718811,-0.0780380368232727
1682879941568654600,5.592654541015625,0.34834590554237366,1.0012081861495972,0.06215553730726242
1682879941585526800,5.60952685546875,0.2376265823841095,0.759916365146637,0.16722436249256134
1682879941602397400,5.6263974609375,0.10537425428628922,0.1647808998823166,0.18677204847335815
1682879941619269600,5.64326953125,-0.06352998316287994,-0.47082439064979553,0.1267545372247696
1682879941636139000,5.660138916015625,-0.2073887437582016,-0.8698720932006836,0.16768251359462738
1682879941653013200,5.67701318359375,-0.3927863538265228,-1.1091785430908203,0.33429601788520813
1682879941669883000,5.6938828125,-0.6316346526145935,-1.1898127794265747,0.5288565754890442
1682879941686757600,5.710757568359375,-0.8177958726882935,-1.187827467918396,0.6843217611312866
1682879941703623400,5.72762353515625,-0.9327912330627441,-1.2472341060638428,0.7640396952629089
1682879941720489200,5.7444892578125,-1.027475357055664,-1.4256067276000977,0.7985535860061646
1682879941737368600,5.76136865234375,-1.1317806243896484,-1.6785049438476562,0.8698720932006836
1682879941754244600,5.77824462890625,-1.223868489265442,-2.0088303089141846,1.0201449394226074
1682879941771111400,5.795111328125,-1.2669345140457153,-2.4081835746765137,1.239292860031128
1682879941787984000,5.81198388671875,-1.129489779472351,-2.559678077697754,1.2747230529785156
1682879941804854500,5.8288544921875,-0.7701483368873596,-1.975232720375061,0.7903069257736206
1682879941821726700,5.845726806640625,-0.665232241153717,-0.7864890098571777,0.17501288652420044
1682879941838597000,5.86259716796875,-0.868803083896637,-0.09162978827953339,-0.12247848510742188
1682879941855466800,5.879466796875,-0.8231409192085266,0.06001751124858856,-0.18249599635601044
1682879941872342300,5.89634228515625,-0.6655376553535461,0.04993823543190956,-0.04001167416572571
1682879941889212400,5.91321240234375,-0.4999932050704956,-0.07559457421302795,0.1693623960018158
1682879941906079700,5.930079833984375,-0.3937026560306549,0.0025961773935705423,0.33139440417289734
1682879941922958600,5.94695849609375,-0.3214678466320038,0.2587014436721802,0.4124867618083954
1682879941939825400,5.963825439453125,-0.2515237629413605,0.42348232865333557,0.5051855444908142
1682879941956696300,5.9806962890625,-0.19654589891433716,0.4349360466003418,0.6647741198539734
1682879941973561900,5.997561767578125,-0.12950342893600464,0.33399057388305664,0.8295549750328064
1682879941990430200,6.01443017578125,-0.06154467165470123,0.22052235901355743,0.917672336101532
1682879942007308800,6.031308837890625,0.0064140851609408855,0.1443169116973877,0.8907942175865173
1682879942024180700,6.0481806640625,0.08017606288194656,0.07208210229873657,0.7881689071655273
1682879942041054500,6.065054443359375,0.1488984078168869,-0.00366519158706069,0.644768238067627
1682879942057924400,6.08192431640625,0.19013181328773499,-0.05803219974040985,0.4014911949634552
1682879942074799900,6.0987998046875,0.18585574626922607,-0.030543262138962746,0.03375030308961868
1682879942091669500,6.11566943359375,0.1699732542037964,-0.00733038317412138,-0.3110831379890442
1682879942108537300,6.132537353515625,0.21930062770843506,-0.1508837193250656,-0.5375614166259766
1682879942125415000,6.149414794921875,0.3219259977340698,-0.24892759323120117,-0.6875288486480713
1682879942142282800,6.16628271484375,0.41141775250434875,-0.22372940182685852,-0.7858781218528748
1682879942159155700,6.18315576171875,0.4389066696166992,-0.22372940182685852,-0.8145887851715088
1682879942176023300,6.200023193359375,0.4395175576210022,-0.3156646192073822,-0.7666358947753906
1682879942192900600,6.216900634765625,0.4547891616821289,-0.3882048726081848,-0.6692028641700745
1682879942209768400,6.2337685546875,0.4723515510559082,-0.3914119005203247,-0.5664247870445251
1682879942226641000,6.250640869140625,0.46013423800468445,-0.3810271918773651,-0.4508185386657715
1682879942243511600,6.267511474609375,0.41431936621665955,-0.3649919927120209,-0.35246923565864563
1682879942260377300,6.28437744140625,0.3407101035118103,-0.35185837745666504,-0.3292563557624817
1682879942277254400,6.30125439453125,0.2672535479068756,-0.4605923891067505,-0.4144720733165741
1682879942294124000,6.3181240234375,0.24953845143318176,-0.6513350605964661,-0.5291619896888733
1682879942310999600,6.33499951171875,0.26710084080696106,-0.608421802520752,-0.5589417219161987
1682879942327869400,6.351869384765625,0.3410155177116394,-0.2692388594150543,-0.45402559638023376
1682879942344739800,6.36873974609375,0.4205807149410248,0.07024950534105301,-0.2557998299598694
1682879942361612300,6.3856123046875,0.4170682430267334,0.19593502581119537,-0.07696902006864548
1682879942378472200,6.40247216796875,0.34865134954452515,0.12522737681865692,-0.032681290060281754
1682879942395355400,6.41935546875,0.2422080636024475,-0.06459899991750717,-0.1238529309630394
1682879942412225500,6.4362255859375,0.3321579694747925,0.034666601568460464,-0.34208452701568604
1682879942429098200,6.45309814453125,0.9169087409973145,1.2582297325134277,-0.8666650652885437
1682879942445971500,6.469971435546875,0.5313000679016113,1.189049243927002,-0.4460843503475189
1682879942462837800,6.486837646484375,0.3822489380836487,1.2544118165969849,-0.13576480746269226
1682879942479711200,6.503711181640625,0.3049744665622711,1.0616837739944458,0.1270599663257599
1682879942496584000,6.520583984375,0.31322115659713745,0.45891252160072327,0.31749722361564636
1682879942513454300,6.537454345703125,0.1915062516927719,0.11514809727668762,0.4535674452781677
1682879942530333700,6.554333740234375,-0.16508632898330688,-0.22586742043495178,0.4642575979232788
1682879942547197200,6.571197265625,-0.5587889552116394,-0.7301366925239563,0.4363104999065399
1682879942564069400,6.5880693359375,-0.8475755453109741,-1.1438452005386353,0.3523165285587311
1682879942580940000,6.60493994140625,-0.9714284539222717,-1.3965907096862793,0.13744467496871948
1682879942597812700,6.621812744140625,-0.9935722947120667,-1.2582297325134277,-0.1736384481191635
1682879942614683400,6.638683349609375,-1.0438159704208374,-1.0925325155258179,-0.3217732608318329
1682879942631555300,6.655555419921875,-1.0239628553390503,-0.9256135821342468,-0.29886582493782043
1682879942648426000,6.672426025390625,-0.8475755453109741,-0.4862487316131592,-0.17608191072940826
1682879942665298000,6.6892978515625,-0.6569855809211731,0.01725694350898266,-0.09697485715150833
1682879942682168600,6.70616845703125,-0.5499314665794373,0.3306308090686798,0.005955935921519995
1682879942699041000,6.723041015625,-0.446389764547348,0.4105014503002167,0.20326541364192963
1682879942715906000,6.739906005859375,-0.3352122902870178,0.38117989897727966,0.4363104999065399
1682879942732781800,6.75678173828125,-0.25182920694351196,0.41859540343284607,0.6783658266067505
1682879942749654300,6.773654296875,-0.1866193264722824,0.4590652287006378,0.8671231865882874
1682879942766514000,6.790513916015625,-0.1498146951198578,0.5337435007095337,0.9301950335502625
1682879942783400000,6.80739990234375,-0.15851953625679016,0.7330383062362671,0.8281805515289307
1682879942800269600,6.82426953125,-0.2054034322500229,0.8287914395332336,0.6415612101554871
1682879942817136400,6.841136474609375,-0.2454151064157486,0.6704245805740356,0.5316054821014404
1682879942834012400,6.858012451171875,-0.2506074607372284,0.43447789549827576,0.4990769028663635
1682879942850882800,6.8748828125,-0.23839016258716583,0.1869247704744339,0.4355469346046448
1682879942867752400,6.89175244140625,-0.23487769067287445,-0.09773843735456467,0.3669773042201996
1682879942884629000,6.90862890625,-0.21242839097976685,-0.3017674386501312,0.31291571259498596
1682879942901498400,6.925498291015625,-0.17211128771305084,-0.3309362530708313,0.23090706765651703
1682879942918368800,6.94236865234375,-0.14355333149433136,-0.21273382008075714,0.12568552792072296
1682879942935241000,6.959240966796875,-0.12492194026708603,-0.1088867336511612,0.032528575509786606
1682879942952111600,6.976111572265625,-0.10186178237199783,-0.10842858254909515,-0.03741549700498581
1682879942968984000,6.992984130859375,0.022449297830462456,-0.14309518039226532,-0.14676037430763245
1682879942985854700,7.009854736328125,0.2223549485206604,-0.11133018881082535,-0.2532036304473877
1682879943002727200,7.02672705078125,0.4225660264492035,-0.08170322328805923,-0.3090978264808655
1682879943019597300,7.043597412109375,0.59803706407547,-0.10537425428628922,-0.31520646810531616
1682879943036467200,7.06046728515625,0.7076873779296875,-0.02871066704392433,-0.3147483170032501
1682879943053342700,7.0773427734375,0.7979426980018616,0.17562375962734222,-0.39935314655303955
1682879943070203100,7.094203125,0.8526151776313782,0.45692721009254456,-0.44104471802711487
1682879943087083500,7.11108349609375,0.8516988754272461,0.5748242139816284,-0.3649919927120209
1682879943103955700,7.127955810546875,0.7670940160751343,0.3196352422237396,-0.22159136831760406
1682879943120826400,7.144826416015625,0.5972734689712524,-0.11621711403131485,-0.08536841720342636
1682879943137698800,7.16169873046875,0.3349068760871887,-0.42928555607795715,-0.07131851464509964
1682879943154568700,7.178568603515625,0.07910704612731934,-0.7660250067710876,-0.36010506749153137
1682879943171437000,7.19543701171875,-0.08368854224681854,-1.207375168800354,-0.7475463151931763
1682879943188312000,7.21231201171875,-0.1586722433567047,-1.2183706760406494,-0.9897544384002686
1682879943205184500,7.2291845703125,-0.08246681094169617,-0.9049968719482422,-1.077413558959961
1682879943222054700,7.2460546875,0.07559457421302795,-0.5797111392021179,-0.988990843296051
1682879943238927600,7.262927734375,0.22892175614833832,-0.3075706362724304,-0.7331910133361816
1682879943255797800,7.2797978515625,1.710117220878601,2.616183042526245,-1.7858645915985107
1682879943272670000,7.296669921875,0.46899178624153137,2.2206478118896484,-0.8156577944755554
1682879943289540400,7.313540283203125,0.8336783647537231,2.3495404720306396,-0.5991060733795166
1682879943306413300,7.330413330078125,0.8177958726882935,2.079843521118164,-0.251676470041275
1682879943323283500,7.347283447265625,0.746630072593689,1.6285667419433594,-0.0731511116027832
1682879943340145000,7.364144775390625,0.6449210047721863,1.1143709421157837,-0.05955936014652252
1682879943357027000,7.381027099609375,0.5426010489463806,0.6496551632881165,-0.03756821155548096
1682879943373898800,7.397898681640625,0.4150829315185547,0.36071592569351196,0.10537425428628922
1682879943390769200,7.41476904296875,0.2831360399723053,0.192422553896904,0.3442225754261017
1682879943407641600,7.4316416015625,0.13836097717285156,0.03955352306365967,0.5529857873916626
1682879943424512300,7.44851220703125,-0.12171489745378494,-0.24495697021484375,0.6678284406661987
1682879943441382100,7.465382080078125,-0.46211954951286316,-0.7052439451217651,0.7660250067710876
1682879943458257700,7.482257568359375,-0.8399397134780884,-1.1911872625350952,0.8013024926185608
1682879943475127800,7.4991279296875,-1.1598803997039795,-1.7311921119689941,0.7206682562828064
1682879943491998000,7.515998046875,-1.3368785381317139,-2.258063316345215,0.6096435189247131
1682879943508870400,7.532870361328125,-1.3269519805908203,-2.526691436767578,0.5232060551643372
1682879943525740800,7.54974072265625,-1.0926852226257324,-2.135737657546997,0.3149010241031647
1682879943542613500,7.566613525390625,-0.9243918061256409,-1.2539535760879517,0.19104810059070587
1682879943559484000,7.58348388671875,-0.8729264140129089,-0.40683624148368835,0.0988074541091919
1682879943576354000,7.60035400390625,-0.7374670505523682,-0.0884227454662323,-0.012675453908741474
1682879943593216800,7.617216796875,-0.5520694851875305,0.25534167885780334,-0.04444044828414917
1682879943610089700,7.63408984375,-0.408363401889801,0.560468852519989,0.0884227454662323
1682879943626971000,7.650970947265625,-0.31001409888267517,0.6210972666740417,0.35033121705055237
1682879943643846000,7.667845947265625,-0.2684752643108368,0.522595226764679,0.585667073726654
1682879943660702000,7.684701904296875,-0.2525927722454071,0.4427245855331421,0.6998988389968872
1682879943677585400,7.70158544921875,-0.22617286443710327,0.5206099152565002,0.7443392872810364
1682879943694455600,7.71845556640625,-0.18631389737129211,0.5975789427757263,0.7997753024101257
1682879943711328000,7.735327880859375,-0.16172657907009125,0.5386304259300232,0.8434522151947021
1682879943728198100,7.7521982421875,-0.14324790239334106,0.4567744731903076,0.7869471311569214
1682879943745070600,7.769070556640625,-0.14278975129127502,0.36300668120384216,0.6551529765129089
1682879943761932300,7.785932373046875,-0.15760323405265808,0.21212296187877655,0.5036584138870239
1682879943778814200,7.802814208984375,-0.17928895354270935,0.02519819140434265,0.3842342495918274
1682879943795684400,7.819684326171875,-0.17256943881511688,-0.156686931848526,0.3162754774093628
1682879943812556800,7.836556884765625,-0.12751811742782593,-0.23075434565544128,0.2715296149253845
1682879943829427500,7.853427490234375,-0.08139779418706894,-0.07849618047475815,0.17928895354270935
1682879943846297000,7.870297119140625,-0.04566217586398125,0.004734205547720194,-0.03756821155548096
1682879943863178200,7.88717822265625,0.025961773470044136,-0.2226603776216507,-0.2817615866661072
1682879943880042800,7.904042724609375,0.11560624837875366,-0.38866302371025085,-0.4236350357532501
1682879943896913200,7.9209130859375,0.25213462114334106,-0.28588494658470154,-0.46929723024368286
1682879943913785300,7.937785400390625,0.4616613984107971,-0.09773843735456467,-0.4807509481906891
1682879943930656000,7.954656005859375,0.6110179424285889,0.0708603709936142,-0.45005497336387634
1682879943947518000,7.97151806640625,0.6914994716644287,0.13301590085029602,-0.41493022441864014
1682879943964398600,7.988398681640625,0.7177666425704956,0.11575896292924881,-0.4092797040939331
1682879943981271600,8.005271484375,0.7160868048667908,0.08750644326210022,-0.37659841775894165
1682879943998132500,8.022132568359375,0.6885978579521179,0.06902777403593063,-0.2791654169559479
1682879944015014700,8.0390146484375,0.6279694437980652,0.10399980843067169,-0.17608191072940826
1682879944031884800,8.055884765625,0.49556443095207214,0.15760323405265808,-0.16859880089759827
1682879944048746500,8.07274658203125,0.33276882767677307,0.00931569468230009,-0.3446807265281677
1682879944065628200,8.089628173828125,0.23747386038303375,-0.470060795545578,-0.5380195379257202
1682879944082500400,8.106500244140625,0.192422553896904,-0.7006624341011047,-0.5960517525672913
1682879944099360500,8.123360595703126,0.17272214591503143,-0.6101016402244568,-0.6814202070236206
1682879944116240600,8.14024072265625,0.10644327104091644,-0.4411974251270294,-0.7958046793937683
1682879944133116400,8.157116455078125,0.06261368840932846,-0.156686931848526,-0.8005388975143433
1682879944149985800,8.17398583984375,0.07956519722938538,-0.058337632566690445,-0.5994115471839905
1682879944166856700,8.190856689453126,0.6785185933113098,0.732122004032135,-0.6997461318969727
1682879944183729200,8.207729248046874,1.0317513942718506,2.341904640197754,-1.1484266519546509
1682879944200589300,8.22458935546875,0.7519751191139221,1.9741637706756592,-0.8808676600456238
1682879944217471700,8.2414716796875,0.5677992701530457,1.5114333629608154,-0.784503698348999
1682879944234342700,8.2583427734375,0.5117523670196533,1.3855950832366943,-0.6435465216636658
1682879944251214600,8.275214599609376,0.5057964324951172,1.2211196422576904,-0.4216497242450714
1682879944268085500,8.29208544921875,0.46410486102104187,1.0719157457351685,-0.17928895354270935
1682879944284953900,8.308953857421875,0.36529740691185,0.8556694984436035,0.03634648025035858
1682879944301832400,8.32583251953125,0.251218318939209,0.45692721009254456,0.15913039445877075
1682879944318700800,8.34270068359375,0.041233405470848083,-0.07269296050071716,0.24327708780765533
1682879944335571000,8.359571044921875,-0.1791362315416336,-0.49296826124191284,0.395077109336853
1682879944352443000,8.37644287109375,-0.41111230850219727,-0.6747006773948669,0.5603161454200745
1682879944369315000,8.393315185546875,-0.6006332635879517,-0.7973318696022034,0.6747006773948669
1682879944386185200,8.410185302734375,-0.7209737300872803,-1.086118459701538,0.7782423496246338
1682879944403058700,8.42705859375,-0.8213083148002625,-1.4966198205947876,0.9815077185630798
1682879944419929900,8.443929931640625,-0.8900306820869446,-1.9614882469177246,1.2304353713989258
1682879944436799700,8.4607998046875,-0.7596109509468079,-2.0500638484954834,1.2134838104248047
1682879944453674500,8.477674560546875,-0.49617528915405273,-1.2945761680603027,0.6934847831726074
1682879944470532600,8.49453271484375,-0.6111706495285034,-0.49006664752960205,0.14966198801994324
1682879944487415800,8.511415771484375,-0.7754934430122375,-0.2652682363986969,-0.07956519722938538
1682879944504285700,8.52828564453125,-0.6368269920349121,0.11270463466644287,-0.07773260027170181
1682879944521155800,8.54515576171875,-0.47708576917648315,0.3962988257408142,0.06108652427792549
1682879944538031900,8.562031982421875,-0.394008070230484,0.37400224804878235,0.26404649019241333
1682879944554901200,8.5789013671875,-0.3488040566444397,0.3182607889175415,0.4662429094314575
1682879944571771600,8.595771728515626,-0.28848111629486084,0.21471913158893585,0.5757405161857605
1682879944588644600,8.61264453125,-0.23396138846874237,0.0780380368232727,0.6316346526145935
1682879944605514800,8.6295146484375,-0.1992947906255722,0.05864306539297104,0.6663012504577637
1682879944622384600,8.646384521484375,-0.2050980031490326,0.2220495194196701,0.6262896060943604
1682879944639260700,8.6632607421875,-0.23625212907791138,0.3764457106590271,0.5070181488990784
1682879944656126500,8.68012646484375,-0.2721404731273651,0.48059824109077454,0.4080579876899719
1682879944673001500,8.69700146484375,-0.28756481409072876,0.4440990388393402,0.4124867618083954
1682879944689876000,8.7138759765625,-0.23854288458824158,0.2551889419555664,0.47540587186813354
1682879944706743600,8.73074365234375,-0.15882496535778046,-0.019394971430301666,0.5085453391075134
1682879944723614500,8.747614501953125,-0.11270463466644287,-0.2893974184989929,0.49296826124191284
1682879944740479000,8.76447900390625,-0.12324206531047821,-0.43936482071876526,0.40973785519599915
1682879944757359000,8.781359130859375,-0.15363261103630066,-0.3686571717262268,0.204487144947052
1682879944774229800,8.798229736328125,-0.15485434234142303,-0.24236078560352325,-0.08307767659425735
1682879944791091700,8.815091796875,-0.11392636597156525,-0.19303341209888458,-0.33200526237487793
1682879944807972400,8.831972412109375,-0.014966198243200779,-0.16035212576389313,-0.44364088773727417
1682879944824845300,8.84884521484375,0.14844025671482086,-0.21533000469207764,-0.44715335965156555
1682879944841715700,8.8657158203125,0.31123584508895874,-0.2921462953090668,-0.408363401889801
1682879944858588200,8.882588134765625,0.44852781295776367,-0.23594669997692108,-0.38240164518356323
1682879944875458600,8.89945849609375,0.5690209865570068,-0.10048733651638031,-0.4346306324005127
1682879944892330800,8.916330810546874,0.6649268269538879,0.018020525574684143,-0.4922046661376953
1682879944909201200,8.933201171875,0.7170031070709229,0.13240504264831543,-0.4433354437351227
1682879944926069000,8.950069091796875,0.707534670829773,0.2324342280626297,-0.3246748745441437
1682879944942949000,8.96694921875,0.60429847240448,0.11850785464048386,-0.28328874707221985
1682879944959817000,8.98381689453125,0.4150829315185547,-0.1368338167667389,-0.3214678466320038
1682879944976687600,9.0006875,0.2710714638233185,-0.42791110277175903,-0.4389066696166992
1682879944993559600,9.0175595703125,0.2165517359972,-0.6656904220581055,-0.5865833759307861
1682879945010419700,9.034419677734375,0.24556782841682434,-0.6085745096206665,-0.6450737118721008
1682879945027302700,9.051302734375,0.32879820466041565,-0.2788599729537964,-0.5835290551185608
1682879945044170500,9.06817041015625,0.37369680404663086,-0.0074830991216003895,-0.5088507533073425
1682879945061048600,9.085048583984374,0.3474296033382416,0.007024950347840786,-0.446389764547348
1682879945077916400,9.10191650390625,0.3010038435459137,-0.16783522069454193,-0.33307427167892456
1682879945094789000,9.1187890625,0.29917123913764954,-0.256868839263916,-0.206777885556221
1682879945111659300,9.1356591796875,0.3220787048339844,-0.21563543379306793,-0.16233743727207184
1682879945128531700,9.15253173828125,0.34345898032188416,-0.08231408894062042,-0.1823432743549347
1682879945145402000,9.169402099609375,1.4188872575759888,2.1901047229766846,-1.2875511646270752
1682879945162274600,9.186274658203125,0.5714644193649292,2.029141664505005,-0.801913321018219
1682879945179145500,9.2031455078125,0.7506006956100464,2.378403902053833,-0.7709119319915771
1682879945196018000,9.220017822265625,0.6953173875808716,2.199420213699341,-0.4343251883983612
1682879945212888000,9.23688818359375,0.6487388610839844,1.642922043800354,-0.08704829961061478
1682879945229761000,9.253760986328125,0.49144110083580017,0.8460483551025391,0.10720685124397278
1682879945246631000,9.270630859375,0.2834414839744568,0.08903361111879349,0.18570303916931152
1682879945263503400,9.28750341796875,0.03878994286060333,-0.26374107599258423,0.24846944212913513
1682879945280368000,9.3043681640625,-0.29993483424186707,-0.5068654417991638,0.35903605818748474
1682879945297247000,9.3212470703125,-0.6722571849822998,-0.8996517658233643,0.48059824109077454
1682879945314117000,9.3381171875,-0.9564622640609741,-1.3938417434692383,0.5319108963012695
1682879945330992400,9.354992431640625,-1.0888673067092896,-1.962557315826416,0.5041165351867676
1682879945347860000,9.37185986328125,-1.1644618511199951,-2.3302981853485107,0.5839871764183044
1682879945364732700,9.388732666015626,-1.0653489828109741,-2.244776964187622,0.6531676650047302
1682879945381585700,9.405585693359376,-0.7898487448692322,-1.5473216772079468,0.5259549617767334
1682879945398475500,9.4224755859375,-0.6881396770477295,-0.626747727394104,0.2838996350765228
1682879945415346200,9.43934619140625,-0.7252497673034668,-0.27809640765190125,0.09392052888870239
1682879945432218600,9.456218505859376,-0.5769622325897217,0.14187344908714294,0.046731192618608475
1682879945449089300,9.47308935546875,-0.36713001132011414,0.630871057510376,0.09758572280406952
1682879945465959000,9.489958984375,-0.2977968156337738,0.6760751008987427,0.24617868661880493
1682879945482834400,9.50683447265625,-0.2909245789051056,0.5650503635406494,0.4434881806373596
1682879945499704300,9.523704345703125,-0.2594650089740753,0.521984338760376,0.5345070958137512
1682879945516574700,9.54057470703125,-0.26969701051712036,0.365755558013916,0.5832235813140869
1682879945533447400,9.557447509765625,-0.2871066629886627,0.16401731967926025,0.7031059265136719
1682879945550307000,9.57430712890625,-0.2535090744495392,0.28985556960105896,0.8139779567718506
1682879945567190500,9.5911904296875,-0.20433442294597626,0.5589417219161987,0.7967209815979004
1682879945584050200,9.60805029296875,-0.2002110779285431,0.6540839672088623,0.7014260292053223
1682879945600933600,9.62493359375,-0.22082778811454773,0.46043968200683594,0.6122397184371948
1682879945617803800,9.6418037109375,-0.24037547409534454,0.10476338863372803,0.5612324476242065
1682879945634676200,9.65867626953125,-0.2616030275821686,-0.14263702929019928,0.5019785165786743
1682879945651547000,9.675546875,-0.25244006514549255,-0.16890424489974976,0.3677408695220947
1682879945668419600,9.692419677734375,-0.23609942197799683,-0.128434419631958,0.13041973114013672
1682879945685289700,9.709289794921874,-0.22663100063800812,-0.2831360399723053,-0.14767667651176453
1682879945702162400,9.726162353515624,-0.1866193264722824,-0.4964807331562042,-0.3520110845565796
1682879945719032800,9.74303271484375,-0.08521570265293121,-0.5002986192703247,-0.45234572887420654
1682879945735907600,9.759907470703125,0.08170322328805923,-0.3423899710178375,-0.52702397108078
1682879945752773000,9.776773193359375,0.26710084080696106,-0.14294247329235077,-0.5761986374855042
1682879945769648600,9.793648681640626,0.4277583956718445,-0.06811147183179855,-0.5529857873916626
1682879945786516000,9.810515869140625,0.5922338366508484,-0.12660181522369385,-0.43997567892074585
1682879945803394000,9.82739404296875,0.7625125646591187,-0.10674870014190674,-0.30512720346450806
1682879945820262000,9.844261962890625,0.9138544201850891,0.01038470957428217,-0.24174992740154266
1682879945837134000,9.861134033203125,0.9783006906509399,0.24724771082401276,-0.22189679741859436
1682879945854004700,9.878004638671875,0.9472993016242981,0.5659666657447815,-0.15302173793315887
1682879945870866700,9.89486669921875,0.8071057200431824,0.7544185519218445,-0.043218716979026794
1682879945887747600,9.91174755859375,0.5748242139816284,0.5166392922401428,0.01710422709584236
1682879945904621800,9.928621826171875,0.30695977807044983,-0.31871894001960754,-0.07635815441608429
1682879945921489400,9.945489501953125,0.1215621829032898,-1.1716395616531372,-0.43875396251678467
1682879945938368000,9.962367919921874,-0.018936822190880775,-1.5042556524276733,-0.7475463151931763
1682879945955230000,9.97922998046875,-0.010231993161141872,-1.0690141916275024,-0.8449793457984924
1682879945972109300,9.996109375,0.08155050873756409,-0.2356412708759308,-0.875064492225647
1682879945988976600,10.0129765625,0.11453723162412643,0.3136793076992035,-0.778853178024292
1682879946005847300,10.029847412109374,0.16172657907009125,0.21334469318389893,-0.5152648091316223
1682879946022722300,10.046722412109375,0.8541423082351685,0.8657487630844116,-0.7240280508995056
1682879946039592200,10.06359228515625,1.0074695348739624,2.029905319213867,-0.9434813857078552
1682879946056460300,10.080460205078126,0.7912232279777527,1.7452419996261597,-0.7026477456092834
1682879946073337900,10.097337890625,0.5480988621711731,1.3617713451385498,-0.49984049797058105
1682879946090206000,10.1142060546875,0.4870123267173767,1.3403910398483276,-0.23335053026676178
1682879946107085800,10.1310859375,0.5032002329826355,1.2721269130706787,0.0529925599694252
1682879946123949600,10.147949462890624,0.44455718994140625,0.9149234294891357,0.26969701051712036
1682879946140821500,10.164821533203124,0.28267788887023926,0.3474296033382416,0.39248090982437134
1682879946157689300,10.181689453125,-0.03329215571284294,-0.11163562536239624,0.48258355259895325
1682879946174567200,10.198567138671875,-0.44715335965156555,-0.646906316280365,0.5780312418937683
1682879946191434800,10.215434814453126,-0.8420777320861816,-1.206153392791748,0.6276640295982361
1682879946208307000,10.232306884765626,-1.07771897315979,-1.8322902917861938,0.5832235813140869
1682879946225161000,10.249160888671875,-1.165378212928772,-2.355954647064209,0.5091561675071716
1682879946242050300,10.26605029296875,-1.0444267988204956,-2.2634084224700928,0.31520646810531616
1682879946258920700,10.282920654296875,-0.8865181803703308,-1.4372131824493408,0.13225232064723969
1682879946275793400,10.29979345703125,-0.8098546266555786,-0.4210388660430908,0.023976460099220276
1682879946292663800,10.316663818359375,-0.6734789609909058,-0.18310685455799103,-0.03420845419168472
1682879946309536000,10.333535888671875,-0.44593164324760437,0.05406157299876213,0.05604688450694084
1682879946326406400,10.350406494140625,-0.26313021779060364,0.3744603991508484,0.24572055041790009
1682879946343279400,10.367279296875,-0.1898263692855835,0.49586987495422363,0.4560109078884125
1682879946360139000,10.384138916015624,-0.16310101747512817,0.5545129179954529,0.5864306092262268
1682879946377022000,10.40102197265625,-0.18020524084568024,0.4285219609737396,0.6152940392494202
1682879946393894100,10.41789404296875,-0.24724771082401276,0.09422596544027328,0.6340781450271606
1682879946410763500,10.434763427734374,-0.2866485118865967,-0.10033461451530457,0.7298312783241272
1682879946427635500,10.451635498046874,-0.2767219543457031,0.007788531947880983,0.7573201656341553
1682879946444508200,10.468508056640625,-0.2649627923965454,0.2321287989616394,0.6640105247497559
1682879946461378800,10.48537890625,-0.27641651034355164,0.3349068760871887,0.4940372705459595
1682879946478251000,10.5022509765625,-0.31291571259498596,0.2542726695537567,0.34987306594848633
1682879946495121700,10.51912158203125,-0.34574973583221436,-0.05161811411380768,0.2577851414680481
1682879946511993600,10.53599365234375,-0.35643985867500305,-0.49846604466438293,0.1508837193250656
1682879946528865500,10.552865478515624,-0.3816380500793457,-0.7999280095100403,-0.004581489134579897
1682879946545737000,10.569737060546874,-0.4694499373435974,-0.8579602241516113,-0.1745547503232956
1682879946562595000,10.586594970703125,-0.5028948187828064,-0.9045386910438538,-0.35934147238731384
1682879946579480300,10.603480224609376,-0.4280638098716736,-0.9075930118560791,-0.5151121020317078
1682879946596348200,10.62034814453125,-0.2594650089740753,-0.7124215960502625,-0.5934556126594543
1682879946613215500,10.637215576171876,-0.02229658141732216,-0.4740314185619354,-0.6325509548187256
1682879946630083000,10.6540830078125,0.20586158335208893,-0.3228422701358795,-0.6487388610839844
1682879946646966500,10.670966552734376,0.4407392740249634,-0.32681289315223694,-0.6265950202941895
1682879946663833000,10.6878330078125,0.6032294034957886,-0.23273965716362,-0.4743368625640869
1682879946680698600,10.70469873046875,0.7457137703895569,-0.06185010448098183,-0.2513710558414459
1682879946697580000,10.721580078125,0.8422304391860962,0.06368270516395569,-0.03878994286060333
1682879946714441500,10.73844140625,0.8593347072601318,0.2099849283695221,0.14538592100143433
1682879946731322400,10.755322265625,0.8132143616676331,0.4150829315185547,0.24113905429840088
1682879946748194600,10.772194580078125,0.7203628420829773,0.6385068893432617,0.1264491081237793
1682879946765066200,10.789066162109375,0.5842925906181335,0.4836525619029999,-0.11423180252313614
1682879946781925600,10.805925537109376,0.447000652551651,-0.19532416760921478,-0.25595253705978394
1682879946798800400,10.82280029296875,0.3214678466320038,-0.6759223937988281,-0.3625485301017761
1682879946815683600,10.83968359375,0.19547687470912933,-0.8193230032920837,-0.5160284042358398
1682879946832551700,10.8565517578125,0.10384709388017654,-0.7713701128959656,-0.7046330571174622
1682879946849424600,10.873424560546875,0.07498370856046677,-0.4712825417518616,-0.784503698348999
1682879946866292000,10.8902919921875,0.12996158003807068,-0.19624045491218567,-0.6498079299926758
1682879946883169800,10.907169677734375,0.22418753802776337,-0.0981965884566307,-0.3352122902870178
1682879946900037600,10.92403759765625,0.29184088110923767,-0.12476922571659088,-0.060933809727430344
1682879946916910000,10.94091015625,0.30024027824401855,-0.1062905490398407,0.02535090781748295
1682879946933780700,10.95778076171875,0.25564709305763245,-0.05619960278272629,-0.016340645030140877
1682879946950653200,10.974653076171874,0.21059578657150269,-0.0003054326225537807,-0.08338310569524765
1682879946967523600,10.991523681640626,0.19547687470912933,0.1290452778339386,-0.11499538272619247
1682879946984396500,11.008396484375,0.22250767052173615,0.36392298340797424,-0.029932396486401558
1682879947001267000,11.025266845703126,0.1996002197265625,0.5038111209869385,0.07681630551815033
1682879947018139100,11.04213916015625,0.11224649101495743,0.44364088773727417,0.13530665636062622
1682879947035009500,11.059009521484375,0.019853120669722557,0.3640756905078888,0.126143679022789
1682879947051882200,11.07588232421875,0.14278975129127502,0.6505714654922485,0.006261368747800589
1682879947068752600,11.092752685546875,-0.2496911734342575,0.2474004179239273,0.21991148591041565
1682879947085625300,11.109625244140625,-0.32559117674827576,-0.15195272862911224,0.2148718535900116
1682879947102496000,11.12649609375,-0.33857205510139465,-0.3194825351238251,0.1869247704744339
1682879947119368200,11.1433681640625,-0.4101960062980652,-0.16661348938941956,0.08429940044879913
1682879947136236000,11.160236083984374,-0.5306891798973083,0.005192354787141085,-0.018020525574684143
1682879947153113600,11.177113525390626,-0.5624541640281677,0.09865473955869675,-0.03222314268350601
1682879947169981700,11.193981689453125,-0.531758189201355,0.08139779418706894,0.08124507963657379
1682879947186854400,11.2108544921875,-0.4219551682472229,0.11545353382825851,0.2612976133823395
1682879947203724800,11.227724853515625,-0.327729195356369,0.24755313992500305,0.4066835343837738
1682879947220586800,11.244586669921874,-0.28420504927635193,0.34284812211990356,0.43936482071876526
1682879947237468000,11.261468017578125,-0.30283644795417786,0.42012256383895874,0.4415028691291809
1682879947254340000,11.278340087890625,-0.34116822481155396,0.3712533414363861,0.43646320700645447
1682879947271210800,11.295210693359374,-0.3836233615875244,0.3625485301017761,0.44394633173942566
1682879947288082000,11.31208203125,-0.41920626163482666,0.44104471802711487,0.43050727248191833
1682879947304956000,11.328955810546875,-0.4248567819595337,0.43050727248191833,0.3761402666568756
1682879947321830000,11.345829833984375,-0.3911064863204956,0.3147483170032501,0.3303253948688507
1682879947338697000,11.362697021484376,-0.3675881624221802,0.1742493063211441,0.299476683139801
1682879947355569700,11.379569580078124,-0.38179078698158264,0.01878410577774048,0.2675589919090271
1682879947372439600,11.396439453125,-0.3831652104854584,-0.025656340643763542,0.23854288458824158
1682879947389312300,11.413312255859376,-0.35842517018318176,0.04108068719506264,0.23380866646766663
1682879947406182100,11.43018212890625,-0.3219259977340698,0.12690725922584534,0.2638937830924988
1682879947423056100,11.44705615234375,-0.25824329257011414,0.15653422474861145,0.31612277030944824
1682879947439923500,11.46392333984375,-0.17959438264369965,0.09468411654233932,0.3478877544403076
1682879947456801300,11.48080126953125,-0.11056660860776901,0.01817324012517929,0.32421672344207764
1682879947473668900,11.4976689453125,-0.05803219974040985,0.009010262787342072,0.23854288458824158
1682879947490531000,11.514531005859375,-0.0074830991216003895,0.03787364438176155,0.08368854224681854
1682879947507411700,11.53141162109375,0.05497787147760391,-0.023365596309304237,-0.12492194026708603
1682879947524284200,11.5482841796875,0.13439035415649414,-0.17211128771305084,-0.3081815242767334
1682879947541155000,11.565155029296875,0.2402227520942688,-0.2773328125476837,-0.42149701714515686
1682879947558024200,11.582024169921874,0.38011088967323303,-0.19532416760921478,-0.4824308156967163
1682879947574901500,11.598901611328126,0.5082398653030396,-0.029626963660120964,-0.49586987495422363
1682879947591770400,11.615770263671875,0.6096435189247131,0.12293662875890732,-0.42180246114730835
1682879947608640800,11.632640869140625,0.6899722814559937,0.2808452844619751,-0.3023782968521118
1682879947625513200,11.64951318359375,0.7214318513870239,0.36071592569351196,-0.20082195103168488
1682879947642384100,11.666384033203125,0.683863639831543,0.38728857040405273,-0.13347405195236206
1682879947659256600,11.683256591796875,0.5917757153511047,0.2811507284641266,-0.12797626852989197
1682879947676124000,11.7001240234375,0.46105054020881653,0.03894266113638878,-0.24342979490756989
1682879947693002800,11.717002685546875,0.31291571259498596,-0.2295326143503189,-0.47540587186813354
1682879947709869800,11.733869873046874,0.2272418737411499,-0.5592471361160278,-0.6637051105499268
1682879947726742300,11.7507421875,0.20494529604911804,-0.8191702961921692,-0.6516404747962952
1682879947743612700,11.76761279296875,0.2324342280626297,-0.6743952035903931,-0.5653557777404785
1682879947760475000,11.784474853515626,0.2542726695537567,-0.12492194026708603,-0.4804455041885376
1682879947777356300,11.801356201171876,0.29733866453170776,0.36682456731796265,-0.3732386529445648
1682879947794228500,11.818228515625,0.3214678466320038,0.34177911281585693,-0.17409659922122955
1682879947811099100,11.83509912109375,0.33292156457901,0.03573561832308769,-0.029474247246980667
1682879947827971300,11.851971435546876,0.3295617997646332,-0.1837177276611328,-0.0757472887635231
1682879947844841700,11.868841796875,1.3855950832366943,1.5060882568359375,-1.2191343307495117
1682879947861714400,11.88571435546875,0.5812382698059082,1.2198978662490845,-0.8484918475151062
1682879947878585300,11.90258544921875,0.6852380633354187,1.4492777585983276,-0.8222246170043945
1682879947895457500,11.91945751953125,0.6305656433105469,1.8411478996276855,-0.5911648273468018
1682879947912328000,11.936327880859375,0.6659958362579346,2.065640926361084,-0.25564709305763245
1682879947929201000,11.953200927734375,0.6131559610366821,1.8461874723434448,0.04963280260562897
1682879947946066700,11.970066650390624,0.3903428912162781,1.1310169696807861,0.22311852872371674
1682879947962947600,11.986947509765624,0.11850785464048386,0.21288654208183289,0.2880229651927948
1682879947979814100,12.003814208984375,-0.20143280923366547,-0.4625777006149292,0.417679101228714
1682879947996686600,12.0206865234375,-0.574976921081543,-0.917061448097229,0.5890268087387085
1682879948013546200,12.037546142578124,-0.9454666972160339,-1.3306171894073486,0.6377432942390442
1682879948030419000,12.0544189453125,-1.168585181236267,-1.8875735998153687,0.5632177591323853
1682879948047314000,12.07131396484375,-1.2405146360397339,-2.353663682937622,0.5175555944442749
1682879948064172800,12.0881728515625,-1.102611780166626,-2.2963950634002686,0.4703662395477295
1682879948081043500,12.10504345703125,-0.8497135639190674,-1.5205962657928467,0.39416080713272095
1682879948097905200,12.1219052734375,-0.7409795522689819,-0.41722095012664795,0.3436116874217987
1682879948114785800,12.138785888671874,-0.6592763066291809,0.03894266113638878,0.2379320114850998
1682879948131658800,12.15565869140625,-0.48487427830696106,0.14294247329235077,0.1820378452539444
1682879948148529200,12.172529052734374,-0.3104722499847412,0.3620903789997101,0.22846360504627228
1682879948165402000,12.189402099609374,-0.2583959996700287,0.4531092941761017,0.3507893681526184
1682879948182272500,12.2062724609375,-0.24434609711170197,0.6070473194122314,0.4834998548030853
1682879948199144700,12.223144775390624,-0.22540926933288574,0.7293730974197388,0.5453499555587769
1682879948216015000,12.24001513671875,-0.19089539349079132,0.6429356932640076,0.6152940392494202
1682879948232887800,12.2568876953125,-0.17272214591503143,0.41752639412879944,0.6940956115722656
1682879948249753900,12.27375390625,-0.21242839097976685,0.30115658044815063,0.6585127115249634
1682879948266635300,12.29063525390625,-0.2968805134296417,0.22831088304519653,0.5190827250480652
1682879948283501600,12.30750146484375,-0.389426589012146,0.09957103431224823,0.3761402666568756
1682879948300377000,12.324377197265624,-0.4308127164840698,0.008246680721640587,0.30833423137664795
1682879948317244200,12.341244140625,-0.38438695669174194,-0.045204028487205505,0.3107776939868927
1682879948334106400,12.3581064453125,-0.2741257846355438,-0.06963863968849182,0.34666603803634644
1682879948350987300,12.3749873046875,-0.1498146951198578,-0.03222314268350601,0.3851505517959595
1682879948367860000,12.39185986328125,-0.03649919852614403,-0.0012217304902151227,0.34773504734039307
1682879948384730600,12.408730712890625,0.02428189292550087,-0.16004669666290283,0.14126259088516235
1682879948401603000,12.42560302734375,0.044745877385139465,-0.206777885556221,-0.17638733983039856
1682879948418473500,12.442473388671875,0.09147707372903824,-0.07941248267889023,-0.4668537676334381
1682879948435345700,12.459345703125,0.20463985204696655,-0.08261952549219131,-0.6067419052124023
1682879948452224000,12.47622412109375,0.36942076683044434,-0.02779436856508255,-0.5638286471366882
1682879948469089300,12.49308935546875,0.5210680365562439,0.029474247246980667,-0.4011857509613037
1682879948485957000,12.50995703125,0.6466008424758911,-0.0010690141934901476,-0.2678644061088562
1682879948502834400,12.52683447265625,0.7483099102973938,0.08552113175392151,-0.24938572943210602
1682879948519702800,12.543702880859374,0.789237916469574,0.3854559659957886,-0.30115658044815063
1682879948536575000,12.560574951171875,0.782976508140564,0.5566509366035461,-0.3263547718524933
1682879948553445400,12.5774453125,0.7425066828727722,0.42241331934928894,-0.24007004499435425
1682879948570307800,12.594307861328126,0.6351471543312073,0.11911872029304504,-0.11545353382825851
1682879948587188700,12.611188720703124,0.43386703729629517,-0.3747658133506775,-0.18646661937236786
1682879948604061000,12.62806103515625,0.22892175614833832,-0.9335548281669617,-0.4612032473087311
1682879948620931600,12.644931640625,0.08429940044879913,-1.003804326057434,-0.6624833345413208
1682879948637804300,12.66180419921875,0.04337143152952194,-0.7139487266540527,-0.8144360780715942
1682879948654674400,12.67867431640625,0.07040221989154816,-0.21441370248794556,-0.8434522151947021
1682879948671545000,12.695545166015625,0.19822576642036438,0.19883663952350616,-0.622624397277832
1682879948688419600,12.712419677734376,1.5267049074172974,3.154049873352051,-1.803274154663086
1682879948705290000,12.7292900390625,0.7631233930587769,2.4746150970458984,-0.9581421613693237
1682879948722162700,12.74616259765625,0.7806857824325562,1.9914207458496094,-0.6363688707351685
1682879948739031600,12.763031494140625,0.7209737300872803,1.6829338073730469,-0.41813725233078003
1682879948755899600,12.779899658203124,0.6841690540313721,1.2936599254608154,-0.3579670190811157
1682879948772780300,12.7967802734375,0.5958990454673767,0.827111542224884,-0.4043927788734436
1682879948789646600,12.813646484375,0.4787656366825104,0.4127921760082245,-0.39996400475502014
1682879948806506000,12.830506103515624,0.33857205510139465,0.22999076545238495,-0.24526239931583405
1682879948823392300,12.847392333984375,0.2217440903186798,0.18570303916931152,0.07254024595022202
1682879948840262100,12.86426220703125,0.0032070425804704428,0.3003929853439331,0.3614795207977295
1682879948857134600,12.881134521484375,-0.3065016269683838,0.1082758679986,0.6023131608963013
1682879948874003700,12.898003662109375,-0.6501133441925049,-0.5578727126121521,0.7254024744033813
1682879948890875600,12.914875732421875,-0.9127854108810425,-1.4752395153045654,0.6568328738212585
1682879948907748000,12.931748046875,-1.105513334274292,-2.1505510807037354,0.5540547966957092
1682879948924619000,12.948618896484374,-1.2481504678726196,-2.3860397338867188,0.6646214127540588
1682879948941491500,12.965491455078125,-1.272737741470337,-2.3302981853485107,0.9983065128326416
1682879948958362000,12.982362060546874,-1.052673578262329,-2.350304126739502,1.1601858139038086
1682879948975236900,12.99923681640625,-0.6553056836128235,-1.8526015281677246,0.9488264322280884
1682879948992102400,13.016102294921875,-0.47998735308647156,-0.437226802110672,0.640644907951355
1682879949008977200,13.03297705078125,-0.4899139404296875,0.2741257846355438,0.2900082767009735
1682879949025847600,13.04984765625,-0.4378376603126526,0.3127630054950714,0.1459967941045761
1682879949042720500,13.066720458984374,-0.3501785099506378,0.3721696436405182,0.1817324161529541
1682879949059591000,13.0835908203125,-0.31062498688697815,0.4095851480960846,0.2893974184989929
1682879949076461000,13.1004609375,-0.2938261926174164,0.5128213763237,0.4254676401615143
1682879949093336600,13.117336669921874,-0.26450464129447937,0.5839871764183044,0.4931209683418274
1682879949110207000,13.13420703125,-0.24556782841682434,0.45173484086990356,0.5355761051177979
1682879949127076900,13.151076904296875,-0.2590068578720093,0.1508837193250656,0.6064364910125732
1682879949143940400,13.1679404296875,-0.2776382565498352,0.038179077208042145,0.5792529582977295
1682879949160820000,13.184820068359375,-0.30482175946235657,0.00809396430850029,0.47968193888664246
1682879949177692700,13.201692626953125,-0.30802878737449646,-0.012217304669320583,0.4179845452308655
1682879949194563000,13.21856298828125,-0.2506074607372284,0.03405573591589928,0.4056145250797272
1682879949211435500,13.235435546875,-0.16539175808429718,0.08048149943351746,0.4027129113674164
1682879949228305700,13.2523056640625,-0.10354165732860565,0.0731511116027832,0.3640756905078888
1682879949245178400,13.269178466796875,-0.10690141469240189,-0.008704829961061478,0.22449298202991486
1682879949262048800,13.286048828125,-0.14905111491680145,-0.2799290120601654,-0.019547687843441963
1682879949278921500,13.30292138671875,-0.12828169763088226,-0.503047525882721,-0.1944078654050827
1682879949295792000,13.319792236328125,-0.04505131021142006,-0.4720461070537567,-0.28909197449684143
1682879949312664800,13.336664794921875,0.10399980843067169,-0.318566232919693,-0.3952298164367676
1682879949329527800,13.35352783203125,0.3084869384765625,-0.07208210229873657,-0.4902193546295166
1682879949346407400,13.370407470703125,0.46990808844566345,0.07696902006864548,-0.4938845634460449
1682879949363277800,13.38727783203125,0.5783366560935974,0.12553280591964722,-0.37140607833862305
1682879949380141300,13.404141357421874,0.6907358765602112,0.15271630883216858,-0.20861047506332397
1682879949397021200,13.421021240234374,0.750142514705658,0.10934487730264664,-0.12049316614866257
1682879949413893600,13.4378935546875,0.7168503403663635,0.0757472887635231,-0.08933904021978378
1682879949430753300,13.454753173828125,0.626747727394104,0.05115996301174164,-0.06994406878948212
1682879949447637000,13.471636962890624,0.4769330322742462,0.024587325751781464,-0.1889100819826126
1682879949464507100,13.488507080078126,0.2554943859577179,-0.1082758679986,-0.48976120352745056
1682879949481369000,13.505369140625,0.09987647086381912,-0.39736783504486084,-0.716697633266449
1682879949498238500,13.522238525390625,0.08811730891466141,-0.6676757335662842,-0.7089090943336487
1682879949515122700,13.539122802734376,0.11820242553949356,-0.7887797355651855,-0.6284276247024536
1682879949531993000,13.5559931640625,0.13057245314121246,-0.7678576111793518,-0.6125451326370239
1682879949548865800,13.57286572265625,0.1264491081237793,-0.41951170563697815,-0.5948300361633301
1682879949565736400,13.589736328125,0.19975294172763824,-0.00931569468230009,-0.5083925724029541
1682879949582608600,13.606608642578125,0.6210972666740417,0.8200865983963013,-0.6331618428230286
1682879949599479000,13.62347900390625,1.2011138200759888,2.8680124282836914,-1.4486669301986694
1682879949616349000,13.640348876953125,0.8617781400680542,2.4935519695281982,-1.0648908615112305
1682879949633224700,13.657224609375,0.7988590002059937,2.0022635459899902,-0.7600690722465515
1682879949650094800,13.6740947265625,0.8943067193031311,1.8541287183761597,-0.5687155723571777
1682879949666965500,13.690965576171875,0.9926560521125793,1.6504051685333252,-0.49984049797058105
1682879949683837700,13.707837646484375,0.9772316813468933,1.3956743478775024,-0.4986187517642975
1682879949700698400,13.724698486328125,0.8982773423194885,1.2041680812835693,-0.48747047781944275
1682879949717580800,13.741580810546875,0.7357872128486633,1.1843149662017822,-0.45723262429237366
1682879949734451000,13.758450927734375,0.6339253783226013,1.317789077758789,-0.3295617997646332
1682879949751323600,13.77532373046875,0.46211954951286316,1.5627460479736328,-0.02275473065674305
1682879949768194600,13.792194580078124,0.31352660059928894,1.7902933359146118,0.30970868468284607
1682879949785066800,13.809066650390625,0.2541199326515198,1.7629570960998535,0.3271183371543884
1682879949801937400,13.8259375,0.21991148591041565,1.1427761316299438,0.21151208877563477
1682879949818810000,13.84281005859375,0.14813482761383057,0.2503020465373993,0.11545353382825851
1682879949835680000,13.859679931640626,0.1368338167667389,-0.3013092875480652,0.17547103762626648
1682879949852550100,13.876550048828125,0.0936150997877121,-0.5146539807319641,0.35842517018318176
1682879949869426400,13.893426513671875,-0.14004085958003998,-0.7669413089752197,0.5433646440505981
1682879949886293500,13.91029345703125,-0.5280929803848267,-1.1201741695404053,0.6449210047721863
1682879949903166200,13.927166259765626,-0.8936958312988281,-1.566258430480957,0.6438519954681396
1682879949920041700,13.944041748046875,-1.1997393369674683,-2.0818288326263428,0.6177374720573425
1682879949936909300,13.960909423828125,-1.4706580638885498,-2.361452341079712,0.7486153841018677
1682879949953784800,13.977784912109374,-1.6116151809692383,-2.467437505722046,1.048092007637024
1682879949970636300,13.99463623046875,-1.603826642036438,-2.789210796356201,1.2811371088027954
1682879949987526700,14.011526611328126,-1.3790283203125,-3.2113184928894043,1.1163562536239624
1682879950004395500,14.0283955078125,-0.9891435503959656,-2.931389570236206,0.6537785530090332
1682879950021270800,14.045270751953124,-0.8739954233169556,-1.662469744682312,0.35262197256088257
1682879950038138600,14.062138671875,-0.8654433488845825,-0.19624045491218567,0.1595885455608368
1682879950055011000,14.079010986328125,-0.6913467645645142,0.4098905920982361,0.07116580009460449
1682879950071881200,14.095881103515625,-0.41141775250434875,0.5568036437034607,0.15790866315364838
1682879950088754000,14.11275390625,-0.18906278908252716,0.42409318685531616,0.37751471996307373
1682879950105624800,14.129624755859375,-0.09728029370307922,0.4170682430267334,0.6189591884613037
1682879950122497300,14.146497314453125,-0.07422012835741043,0.6386595964431763,0.6731734871864319
1682879950139367400,14.163367431640625,-0.13897185027599335,0.7721336483955383,0.5755877494812012
1682879950156237600,14.180237548828124,-0.2093740701675415,0.5705481171607971,0.5458080768585205
1682879950173113300,14.19711328125,-0.23105977475643158,0.35063666105270386,0.6140722632408142
1682879950189983000,14.21398291015625,-0.18906278908252716,0.42638394236564636,0.6540839672088623
1682879950206853400,14.230853271484374,-0.13607023656368256,0.5198463201522827,0.6079636216163635
1682879950223726300,14.247726318359375,-0.12568552792072296,0.32330042123794556,0.5777258276939392
1682879950240586000,14.2645859375,-0.1440114825963974,-0.0455094613134861,0.566119372844696
1682879950257469200,14.28146923828125,-0.16829337179660797,-0.28725937008857727,0.48227810859680176
1682879950274339600,14.298339599609376,-0.2194533348083496,-0.33246341347694397,0.27611109614372253
1682879950291212000,14.3152119140625,-0.2736676335334778,-0.42730024456977844,0.026114489883184433
1682879950308082400,14.33208251953125,-0.24388794600963593,-0.5545129179954529,-0.18478673696517944
1682879950324944600,14.348944580078125,-0.1394299864768982,-0.5650503635406494,-0.3433062732219696
1682879950341825800,14.36582568359375,0.012522737495601177,-0.5028948187828064,-0.45921793580055237
1682879950358698500,14.382698486328126,0.1999056488275528,-0.43997567892074585,-0.522595226764679
1682879950375569000,14.39956884765625,0.38698312640190125,-0.30512720346450806,-0.5096143484115601
1682879950392441000,14.416441162109376,0.5801692605018616,-0.10797043144702911,-0.41661009192466736
1682879950409311500,14.4333115234375,0.7577783465385437,0.0685696229338646,-0.275958389043808
1682879950426184400,14.450184326171875,0.8510879874229431,0.2054034322500229,-0.15974126756191254
1682879950443054300,14.467054443359375,0.812298059463501,0.28909197449684143,-0.10445795953273773
1682879950459927600,14.483927490234375,0.6495024561882019,0.2064724564552307,-0.1059851199388504
1682879950476798000,14.5007978515625,0.39248090982437134,-0.02275473065674305,-0.1797471046447754
1682879950493670400,14.51767041015625,0.09178250283002853,-0.4450153410434723,-0.3831652104854584
1682879950510530300,14.5345302734375,-0.11652254313230515,-1.0590876340866089,-0.7102835774421692
1682879950527413200,14.551413330078125,-0.20754146575927734,-1.2912163734436035,-0.9297369122505188
1682879950544283600,14.56828369140625,-0.16249015927314758,-0.9062185883522034,-0.9804387092590332
1682879950561145600,14.5851455078125,-0.05100724846124649,-0.2741257846355438,-0.9312640428543091
1682879950578027000,14.602027099609375,0.06154467165470123,0.11942415684461594,-0.7785477638244629
1682879950594899500,14.6188994140625,0.1992947906255722,0.06750060617923737,-0.48655417561531067
1682879950611759600,14.635759521484376,0.35094207525253296,-0.022602014243602753,-0.13041973114013672
1682879950628642300,14.652642333984375,0.4749477207660675,0.04948008432984352,0.09086620807647705
1682879950645512700,14.6695126953125,0.48716503381729126,0.17638733983039856,0.11407908797264099
1682879950662375200,14.686375244140624,0.4141666293144226,0.27870726585388184,-0.011759156361222267
1682879950679256000,14.703256103515624,0.3043636083602905,0.08704829961061478,-0.1290452778339386
1682879950696125200,14.720125244140625,0.23884831368923187,-0.03680463135242462,-0.18814650177955627
1682879950713002000,14.737001953125,0.2779437005519867,0.11789698898792267,-0.19349156320095062
1682879950729871000,14.75387109375,0.318566232919693,0.33460143208503723,-0.13927727937698364
1682879950746742300,14.7707421875,0.3701843321323395,0.43249258399009705,-0.08399397134780884
1682879950763614200,14.7876142578125,0.4755585789680481,0.5830708742141724,-0.1820378452539444
1682879950780474000,14.80447412109375,0.9172141551971436,1.9352210760116577,-0.8952230215072632
1682879950797357600,14.821357666015626,0.6531676650047302,1.663996934890747,-0.6878342628479004
1682879950814227700,14.838227783203125,0.5951354503631592,1.4967725276947021,-0.5998696684837341
1682879950831100400,14.855100341796875,0.6012440919876099,1.4291192293167114,-0.5363397002220154
1682879950847968500,14.871968505859375,0.5978843569755554,1.2567025423049927,-0.5186246037483215
1682879950864845800,14.888845703125,0.531147301197052,0.9845620393753052,-0.5534439086914062
1682879950881714000,14.9057138671875,0.4404338300228119,0.7464773058891296,-0.6394231915473938
1682879950898586400,14.92258642578125,0.3882048726081848,0.6579018831253052,-0.6960809230804443
1682879950915456800,14.939456787109375,0.3727805018424988,0.7206682562828064,-0.6397286057472229
1682879950932329500,14.95632958984375,0.3827070891857147,0.8559749126434326,-0.4856378734111786
1682879950949200100,14.9732001953125,0.39935314655303955,1.0729848146438599,-0.28435778617858887
1682879950966072300,14.990072265625,0.3695734739303589,1.3413074016571045,-0.043676864355802536
1682879950982932500,15.006932373046874,0.31093040108680725,1.514793038368225,0.20036379992961884
1682879950999815400,15.0238154296875,0.275958389043808,1.4289665222167969,0.27779096364974976
1682879951016685800,15.040685791015624,0.20143280923366547,0.9398161768913269,0.19975294172763824
1682879951033558500,15.05755859375,0.010995574295520782,0.10751228034496307,0.10980302840471268
1682879951050418200,15.074418212890626,-0.13148874044418335,-0.6973026990890503,0.13087788224220276
1682879951067301400,15.09130126953125,-0.26572638750076294,-1.1640037298202515,0.2695443034172058
1682879951084170000,15.108169921875,-0.4934264123439789,-1.2557861804962158,0.4466952085494995
1682879951101046500,15.125046630859375,-0.7504479289054871,-1.1635456085205078,0.5902485251426697
1682879951117915000,15.141914794921876,-0.9424123764038086,-1.1734721660614014,0.6881396770477295
1682879951134787300,15.158787353515624,-1.041067123413086,-1.4034628868103027,0.8028296232223511
1682879951151658000,15.175657958984376,-1.0505355596542358,-1.7285959720611572,1.0141890048980713
1682879951168530400,15.192530517578126,-1.0352638959884644,-2.2740986347198486,1.1687378883361816
1682879951185398500,15.2093984375,-1.023046612739563,-2.8344147205352783,1.1986702680587769
1682879951202274600,15.226274658203126,-0.8358163833618164,-2.6925413608551025,1.0314459800720215
1682879951219145500,15.2431455078125,-0.5972734689712524,-1.4550809860229492,0.7632761001586914
1682879951236013800,15.260013916015625,-0.5511531829833984,-0.008399397134780884,0.4043927788734436
1682879951252889600,15.2768896484375,-0.59803706407547,0.21105393767356873,0.14263702929019928
1682879951269759500,15.293759521484375,-0.4453207552433014,0.24908030033111572,0.13240504264831543
1682879951286630100,15.310630126953125,-0.2790127098560333,0.3649919927120209,0.2054034322500229
1682879951303502600,15.327502685546875,-0.2583959996700287,0.34086281061172485,0.33200526237487793
1682879951320366600,15.34436669921875,-0.2474004179239273,0.42149701714515686,0.4219551682472229
1682879951337245700,15.36124560546875,-0.24877487123012543,0.4363104999065399,0.4691445231437683
1682879951354115800,15.37811572265625,-0.27229318022727966,0.35323283076286316,0.4940372705459595
1682879951370988300,15.39498828125,-0.2840523421764374,0.21471913158893585,0.5183191895484924
1682879951387859200,15.411859130859375,-0.27641651034355164,0.06918048858642578,0.5490151643753052
1682879951404732000,15.42873193359375,-0.2915354371070862,0.01878410577774048,0.5395467281341553
1682879951421602000,15.44560205078125,-0.32788193225860596,0.03405573591589928,0.4590652287006378
1682879951438474800,15.462474853515625,-0.35445454716682434,0.05345070734620094,0.3729332387447357
1682879951455345200,15.47934521484375,-0.3507893681526184,0.11010845750570297,0.31551191210746765
1682879951472216600,15.496216552734374,-0.30482175946235657,0.19853121042251587,0.2942843437194824
1682879951489088500,15.513088623046874,-0.22220222651958466,0.23365595936775208,0.30344730615615845
1682879951505958100,15.529958251953126,-0.13988813757896423,0.06948592513799667,0.30283644795417786
1682879951522833700,15.546833740234375,-0.08200865983963013,-0.2102903574705124,0.2617557644844055
1682879951539703800,15.563703857421874,-0.06414084881544113,-0.4369213581085205,0.09987647086381912
1682879951556574200,15.58057421875,-0.05406157299876213,-0.49984049797058105,-0.18829920887947083
1682879951573446400,15.5974462890625,0.01710422709584236,-0.33276882767677307,-0.44257187843322754
1682879951590306000,15.61430615234375,0.20631973445415497,-0.012064588256180286,-0.560468852519989
1682879951607189500,15.631189453125,0.44135013222694397,0.2054034322500229,-0.5477933883666992
1682879951624060200,15.64806005859375,0.5928447246551514,0.2444988191127777,-0.4164573848247528
1682879951640932900,15.664932861328126,0.7328855991363525,0.21838432550430298,-0.24373523890972137
1682879951657803300,15.68180322265625,0.8219192028045654,0.20616702735424042,-0.10567969083786011
1682879951674675500,15.698675537109375,0.8151996731758118,0.2298380434513092,-0.07437284290790558
1682879951691546000,15.715546142578125,0.6985244154930115,0.2200642079114914,-0.16142113506793976
1682879951708418600,15.73241845703125,0.49984049797058105,0.0025961773935705423,-0.3013092875480652
1682879951725289000,15.7492890625,0.2834414839744568,-0.26771169900894165,-0.3969096839427948
1682879951742161700,15.76616162109375,0.12018773704767227,-0.5100724697113037,-0.48456886410713196
1682879951759032300,15.7830322265625,0.025503624230623245,-0.718224823474884,-0.608727216720581
1682879951775900200,15.799900146484376,-0.005650503560900688,-0.7877107262611389,-0.6837109327316284
1682879951792779300,15.816779296875,0.04535674303770065,-0.5798638463020325,-0.68951416015625
1682879951809647900,15.83364794921875,0.1598939746618271,-0.17150041460990906,-0.617584764957428
1682879951826515200,15.85051513671875,0.3257438838481903,0.08536841720342636,-0.39813143014907837
1682879951843393300,15.867393310546875,0.4334088861942291,0.13041973114013672,-0.06719517707824707
1682879951860260900,15.8842607421875,1.289994716644287,1.8805487155914307,-0.7904596328735352
1682879951877133800,15.9011337890625,0.8918632864952087,2.7146852016448975,-0.9082038998603821
1682879951894004000,15.91800390625,0.8520042896270752,2.3875668048858643,-0.8384125232696533
1682879951910876700,15.934876708984374,0.7037167549133301,1.6603317260742188,-0.6255260109901428
1682879951927747300,15.951747314453126,0.6794348955154419,1.2250902652740479,-0.5189300179481506
1682879951944619500,15.96861962890625,0.6885978579521179,0.9674578309059143,-0.5198463201522827
1682879951961490000,15.985489990234376,0.6760751008987427,0.8388707041740417,-0.5552765130996704
1682879951978363000,16.00236279296875,0.6352998614311218,0.7603744864463806,-0.5393940210342407
1682879951995222300,16.01922216796875,0.5823072791099548,0.7261660695075989,-0.4769330322742462
1682879952012095000,16.036094970703125,0.5293147563934326,0.7554876208305359,-0.39813143014907837
1682879952028976400,16.052976318359374,0.4282165467739105,0.8061894178390503,-0.25824329257011414
1682879952045848600,16.0698486328125,0.2922990322113037,0.7221954464912415,-0.05604688450694084
1682879952062719000,16.086718994140625,0.13637566566467285,0.48579058051109314,0.07269296050071716
1682879952079591400,16.10359130859375,0.032681290060281754,0.15393804013729095,0.09498954564332962
1682879952096459300,16.120459228515625,-0.032528575509786606,-0.14340060949325562,0.1774563491344452
1682879952113337000,16.137337158203124,-0.1843285858631134,-0.4105014503002167,0.35292738676071167
1682879952130200800,16.154200927734376,-0.43768495321273804,-0.6675229668617249,0.5345070958137512
1682879952147077600,16.17107763671875,-0.6965391039848328,-0.9398161768913269,0.6163630485534668
1682879952163948000,16.187947998046877,-0.8756753206253052,-1.2602150440216064,0.5734497308731079
1682879952180820700,16.20482080078125,-0.9940304756164551,-1.6048957109451294,0.566119372844696
1682879952197691000,16.22169091796875,-1.060614824295044,-1.826945185661316,0.7693848013877869
1682879952214563300,16.238563232421875,-1.0994046926498413,-2.0167715549468994,1.0598511695861816
1682879952231434000,16.25543408203125,-1.1607966423034668,-2.364506721496582,1.2133311033248901
1682879952248306400,16.272306396484375,-1.0751228332519531,-2.6277894973754883,1.0380127429962158
1682879952265177300,16.28917724609375,-0.7735081315040588,-2.1481075286865234,0.5616905689239502
1682879952282049800,16.3060498046875,-0.6724098920822144,-0.7840455174446106,0.1889100819826126
1682879952298920000,16.322919921875,-0.6579018831253052,0.08796459436416626,0.04153883829712868
1682879952315792400,16.33979248046875,-0.48808133602142334,0.3908010423183441,0.005497787147760391
1682879952332663300,16.356663330078124,-0.3220787048339844,0.5736024379730225,0.02229658141732216
1682879952349535500,16.373535400390626,-0.3214678466320038,0.5616905689239502,0.09376781433820724
1682879952366395000,16.390394775390625,-0.351400226354599,0.447000652551651,0.2557998299598694
1682879952383281400,16.407281494140626,-0.3323107063770294,0.23884831368923187,0.5109887719154358
1682879952400138800,16.424138671875,-0.2499966025352478,0.0679587572813034,0.8026769161224365
1682879952417021400,16.441021484375,-0.11957687139511108,0.06582073122262955,0.9868528246879578
1682879952433891800,16.457891845703124,-0.040622539818286896,0.2379320114850998,0.955545961856842
1682879952450764500,16.4747646484375,-0.09040805697441101,0.3689626157283783,0.6772968173027039
1682879952467635000,16.491635009765623,-0.22143864631652832,0.25244006514549255,0.3637702465057373
1682879952484507600,16.508507568359374,-0.33276882767677307,-0.017562376335263252,0.19058994948863983
1682879952501378300,16.52537841796875,-0.3686571717262268,-0.16294831037521362,0.13041973114013672
1682879952518248200,16.542248291015625,-0.3361285924911499,-0.1667662113904953,0.11698069423437119
1682879952535123500,16.55912353515625,-0.27550023794174194,-0.10094548016786575,0.14324790239334106
1682879952551974700,16.575974609375,-0.197004035115242,-0.0507018156349659,0.17928895354270935
1682879952568861700,16.59286181640625,-0.08765916526317596,-0.12950342893600464,0.09804387390613556
1682879952585739300,16.6097392578125,0.013591751456260681,-0.26511552929878235,-0.11835514008998871
1682879952602607000,16.626607177734375,0.08124507963657379,-0.290313720703125,-0.34376442432403564
1682879952619476000,16.64347607421875,0.1843285858631134,-0.2015855312347412,-0.4703662395477295
1682879952636351000,16.66035107421875,0.3614795207977295,-0.03940080851316452,-0.5206099152565002
1682879952653225000,16.677224853515625,0.5132794976234436,0.0659734457731247,-0.489608496427536
1682879952670093000,16.694093017578126,0.6397286057472229,0.0757472887635231,-0.3854559659957886
1682879952686965200,16.71096533203125,0.7583891749382019,0.10323622822761536,-0.28527405858039856
1682879952703836000,16.7278359375,0.7976372838020325,0.18219055235385895,-0.24266621470451355
1682879952720698600,16.74469873046875,0.7507534027099609,0.29733866453170776,-0.22189679741859436
1682879952737578200,16.761578125,0.6407976150512695,0.2548835277557373,-0.22602014243602753
1682879952754451200,16.778451171875,0.48090365529060364,-0.041691552847623825,-0.3081815242767334
1682879952771321900,16.79532177734375,0.2817615866661072,-0.30344730615615845,-0.48685958981513977
1682879952788184300,16.812184326171874,0.13011430203914642,-0.417679101228714,-0.6834055185317993
1682879952805064700,16.829064697265625,0.026419922709465027,-0.5836817622184753,-0.7330383062362671
1682879952821937700,16.845937744140624,-0.048105638474226,-0.7567093372344971,-0.7461718916893005
1682879952838808000,16.86280810546875,-0.10461067408323288,-0.7675521969795227,-0.755182147026062
1682879952855680500,16.879680419921876,-0.0555887371301651,-0.48319441080093384,-0.6713408827781677
1682879952872551000,16.896551025390625,0.1420261710882187,-0.05910121276974678,-0.41813725233078003
1682879952889423400,16.91342333984375,2.1488711833953857,3.737884521484375,-2.0389153957366943
1682879952906291000,16.930291015625,0.6653849482536316,2.532341957092285,-0.7898487448692322
1682879952923169300,16.947169189453124,1.0575604438781738,2.492330312728882,-0.8159632682800293
1682879952940036900,16.964036865234377,1.0546588897705078,2.052049160003662,-0.5871942043304443
1682879952956909600,16.98090966796875,1.016479730606079,1.6878206729888916,-0.43508878350257874
1682879952973790200,16.997790283203123,0.888961672782898,1.4115568399429321,-0.327729195356369
1682879952990654000,17.014654052734375,0.6820310354232788,1.190423607826233,-0.2174680233001709
1682879953007522600,17.0315224609375,0.4723515510559082,0.9783006906509399,-0.10537425428628922
1682879953024395500,17.0483955078125,0.3326161205768585,0.7250970602035522,0.020005837082862854
1682879953041266000,17.065265869140624,0.16432274878025055,0.5655084848403931,0.10384709388017654
1682879953058138400,17.082138427734375,-0.031612277030944824,0.2344195395708084,0.21242839097976685
1682879953075006500,17.09900634765625,-0.2538145184516907,-0.36193767189979553,0.38026362657546997
1682879953091883800,17.1158837890625,-0.4841107130050659,-0.9645562171936035,0.5244278311729431
1682879953108751600,17.132751708984376,-0.7043276429176331,-1.3750576972961426,0.5577199459075928
1682879953125624000,17.1496240234375,-0.9352346658706665,-1.6960673332214355,0.503963828086853
1682879953142494700,17.16649462890625,-1.1756101846694946,-1.9361374378204346,0.5314527750015259
1682879953159355400,17.18335546875,-1.3625348806381226,-2.0864102840423584,0.7017314434051514
1682879953176226600,17.2002265625,-1.429577350616455,-2.3128886222839355,0.9153815507888794
1682879953193112800,17.21711279296875,-1.353830099105835,-2.680476665496826,0.9993755221366882
1682879953209980700,17.233980712890624,-1.0016663074493408,-2.563190460205078,0.8064948320388794
1682879953226853600,17.250853515625,-0.6745479702949524,-1.631773829460144,0.6079636216163635
1682879953243723500,17.2677236328125,-0.543059229850769,-0.18784105777740479,0.4683809280395508
1682879953260587300,17.284587158203124,-0.4210388660430908,0.4758640229701996,0.2515237629413605
1682879953277466600,17.301466552734375,-0.27519479393959045,0.5474879741668701,0.2096794992685318
1682879953294332200,17.318332275390624,-0.15164729952812195,0.6528622508049011,0.3197879493236542
1682879953311207000,17.33520703125,-0.11545353382825851,0.6484334468841553,0.4691445231437683
1682879953328072000,17.352072021484375,-0.1082758679986,0.4758640229701996,0.542142927646637
1682879953344955000,17.368954833984375,-0.12538009881973267,0.3459024429321289,0.5688682794570923
1682879953361825000,17.385824951171877,-0.16844609379768372,0.3585779070854187,0.5274821519851685
1682879953378695400,17.4026953125,-0.242513507604599,0.3597996234893799,0.4158465266227722
1682879953395568000,17.419568115234377,-0.3222314119338989,0.2649627923965454,0.30253100395202637
1682879953412438500,17.4364384765625,-0.3608686327934265,0.09682214260101318,0.29184088110923767
1682879953429311000,17.45331103515625,-0.33276882767677307,0.01114829070866108,0.370947927236557
1682879953446180900,17.470180908203126,-0.2632829248905182,0.06444628536701202,0.4648684561252594
1682879953463054600,17.4870546875,-0.20051652193069458,0.20723603665828705,0.5143485069274902
1682879953479924500,17.503924560546874,-0.1667662113904953,0.285121351480484,0.4631885588169098
1682879953496797200,17.520797119140624,-0.18341228365898132,0.20723603665828705,0.34147366881370544
1682879953513667300,17.537667236328126,-0.19654589891433716,0.03985895588994026,0.18524488806724548
1682879953530529800,17.55452978515625,-0.16844609379768372,-0.1085812970995903,0.010231993161141872
1682879953547401000,17.57140087890625,-0.1108720451593399,-0.1814269721508026,-0.13057245314121246
1682879953564283100,17.588283203125,-0.02932153269648552,-0.1791362315416336,-0.1814269721508026
1682879953581153300,17.6051533203125,0.09468411654233932,-0.19944749772548676,-0.15836681425571442
1682879953598025700,17.622025634765624,0.2454151064157486,-0.1817324161529541,-0.1537853181362152
1682879953614897000,17.63889697265625,0.3787364661693573,-0.0607810914516449,-0.1999056488275528
1682879953631768000,17.65576806640625,0.48380526900291443,0.034666601568460464,-0.24816401302814484
1682879953648639500,17.672639404296874,0.5528330206871033,0.030085112899541855,-0.2900082767009735
1682879953665512000,17.689511962890624,0.5824599862098694,-0.012980886735022068,-0.3289509415626526
1682879953682382000,17.706382080078125,0.5722280144691467,-0.04459316283464432,-0.3436116874217987
1682879953699254800,17.7232548828125,0.5210680365562439,0.018020525574684143,-0.3387247920036316
1682879953716122400,17.740122314453124,0.42730024456977844,0.04184427112340927,-0.3669773042201996
1682879953733000400,17.75700048828125,0.29016098380088806,-0.09529497474431992,-0.44654250144958496
1682879953749868300,17.773868408203125,0.15042556822299957,-0.4384485185146332,-0.5975789427757263
1682879953766740700,17.79074072265625,0.06979135423898697,-0.8764389157295227,-0.7670940160751343
1682879953783611100,17.807611083984376,0.08491026610136032,-1.0073168277740479,-0.8521569967269897
1682879953800473000,17.82447314453125,0.17852537333965302,-0.6294966340065002,-0.7979426980018616
1682879953817354000,17.84135400390625,0.2860376536846161,-0.053297992795705795,-0.6331618428230286
1682879953834226400,17.858226318359375,0.3446807265281677,0.2542726695537567,-0.37339138984680176
1682879953851097000,17.87509716796875,0.3497203588485718,0.0403171069920063,-0.04703662544488907
1682879953867968500,17.891968505859374,0.3822489380836487,-0.30543261766433716,0.16890424489974976
1682879953884841700,17.908841796875,0.4349360466003418,-0.21991148591041565,0.18417587876319885
1682879953901710300,17.92571044921875,0.5729916095733643,0.4558582007884979,-0.13041973114013672
1682879953918585600,17.942585693359376,0.9395107626914978,2.339766502380371,-1.0519099235534668
1682879953935455500,17.95945556640625,0.5804746747016907,1.6733126640319824,-0.7644978761672974
1682879953952321500,17.976321533203127,0.546571671962738,1.1409435272216797,-0.7310529947280884
1682879953969203000,17.993202880859375,0.5616905689239502,0.8756753206253052,-0.750142514705658
1682879953986065400,18.0100654296875,0.6152940392494202,0.6517932415008545,-0.7634288668632507
1682879954002942700,18.026942626953126,0.5929974317550659,0.5946773290634155,-0.694553792476654
1682879954019815000,18.04381494140625,0.5157229900360107,0.7186829447746277,-0.5361869931221008
1682879954036684500,18.0606845703125,0.47189339995384216,0.8895725011825562,-0.3234531581401825
1682879954053555000,18.077554931640623,0.4306600093841553,0.9521862268447876,-0.12476922571659088
1682879954070417000,18.0944169921875,0.3312416672706604,0.7363980412483215,0.01863138936460018
1682879954087298000,18.111298095703123,0.15027284622192383,0.40485092997550964,0.04306599870324135
1682879954104170500,18.12817041015625,-0.046273041516542435,0.02168571576476097,0.03787364438176155
1682879954121038600,18.14503857421875,-0.23747386038303375,-0.32971450686454773,0.10308351367712021
1682879954137916200,18.161916259765626,-0.4054618179798126,-0.6203336715698242,0.1944078654050827
1682879954154784000,18.178783935546875,-0.5473352670669556,-0.8463537693023682,0.27061331272125244
1682879954171656200,18.19565625,-0.6962336897850037,-0.9886853694915771,0.39996400475502014
1682879954188526600,18.212526611328126,-0.8449793457984924,-1.1151344776153564,0.5968153476715088
1682879954205399600,18.229399658203125,-0.9599747061729431,-1.3909401893615723,0.7675521969795227
1682879954222270000,18.24627001953125,-1.0235047340393066,-1.7968600988388062,0.884227454662323
1682879954239142400,18.263142333984376,-1.0051788091659546,-2.12397837638855,0.936609148979187
1682879954256013000,18.280012939453126,-0.7866417169570923,-1.9559905529022217,0.7762570381164551
1682879954272885200,18.29688525390625,-0.5783366560935974,-1.1407908201217651,0.5658139586448669
1682879954289755600,18.313755615234374,-0.5551238059997559,-0.1820378452539444,0.3927863538265228
1682879954306628000,18.330628173828124,-0.49205195903778076,0.2217440903186798,0.20784689486026764
1682879954323498800,18.347498779296874,-0.3211624026298523,0.30024027824401855,0.18646661937236786
1682879954340355800,18.36435595703125,-0.1788308024406433,0.484416127204895,0.2669481039047241
1682879954357241900,18.381241943359374,-0.19196440279483795,0.5609270334243774,0.3614795207977295
1682879954374114000,18.398114013671876,-0.23609942197799683,0.6053674817085266,0.4433354437351227
1682879954390984400,18.414984375,-0.2736676335334778,0.46792277693748474,0.48716503381729126
1682879954407857000,18.43185693359375,-0.29764407873153687,0.15225815773010254,0.5047274231910706
1682879954424727300,18.448727294921873,-0.29275718331336975,-0.01771509274840355,0.4876231849193573
1682879954441600300,18.465600341796875,-0.2883284091949463,0.13408492505550385,0.4103487432003021
1682879954458470700,18.482470703125,-0.3020728528499603,0.3449861407279968,0.30512720346450806
1682879954475343000,18.499343017578123,-0.3530801236629486,0.40485092997550964,0.2525927722454071
1682879954492213500,18.516213623046873,-0.39187005162239075,0.37690386176109314,0.2860376536846161
1682879954509085700,18.533085693359375,-0.39248090982437134,0.17852537333965302,0.355981707572937
1682879954525954000,18.5499541015625,-0.39324450492858887,-0.16019940376281738,0.408363401889801
1682879954542831000,18.5668310546875,-0.38957929611206055,-0.23075434565544128,0.40164390206336975
1682879954559698400,18.583698486328124,-0.3669773042201996,-0.05619960278272629,0.327729195356369
1682879954576572200,18.600572265625,-0.294437050819397,0.11972958594560623,0.22617286443710327
1682879954593424400,18.61742431640625,-0.20494529604911804,0.154396191239357,0.13057245314121246
1682879954610304300,18.63430419921875,-0.1466076523065567,0.07925976812839508,0.07910704612731934
1682879954627185200,18.65118505859375,-0.08918632566928864,-0.07147123664617538,0.08567385375499725
1682879954644057600,18.6680576171875,-0.016035212203860283,-0.21288654208183289,0.10018189996480942
1682879954660940300,18.684940185546875,0.06414084881544113,-0.2444988191127777,0.07635815441608429
1682879954677802500,18.701802490234375,0.16859880089759827,-0.19608774781227112,0.00855211354792118
1682879954694671400,18.71867138671875,0.290313720703125,-0.11514809727668762,-0.10965031385421753
1682879954711533000,18.735532958984376,0.4285219609737396,0.026572637259960175,-0.24037547409534454
1682879954728414500,18.75241455078125,0.545655369758606,0.1537853181362152,-0.3423899710178375
1682879954745286400,18.769286376953126,0.6068946123123169,0.18005253374576569,-0.42210787534713745
1682879954762157000,18.786156982421875,0.6256787180900574,0.16630806028842926,-0.42577308416366577
1682879954779026700,18.803026611328125,0.6163630485534668,0.13775011897087097,-0.3219259977340698
1682879954795896800,18.819896728515626,0.5503895878791809,0.01114829070866108,-0.206777885556221
1682879954812776000,18.83677587890625,0.42439863085746765,-0.1394299864768982,-0.21135938167572021
1682879954829643300,18.853643310546875,0.2840523421764374,-0.1514945775270462,-0.3982841372489929
1682879954846499000,18.8704990234375,0.1417207419872284,-0.12751811742782593,-0.6352998614311218
1682879954863385900,18.8873857421875,0.030085112899541855,-0.2750420868396759,-0.7625125646591187
1682879954880258300,18.90425830078125,-0.05207626149058342,-0.5954409241676331,-0.7951938509941101
1682879954897130200,18.921130126953123,-0.09285151958465576,-0.9976956844329834,-0.8147414922714233
1682879954913998800,18.937998779296876,-0.046273041516542435,-1.1336132287979126,-0.8107708692550659
1682879954930874000,18.9548740234375,0.06811147183179855,-0.8017606139183044,-0.7061602473258972
1682879954947744800,18.971744873046877,0.2200642079114914,-0.24816401302814484,-0.5442809462547302
1682879954964614700,18.98861474609375,0.3501785099506378,0.2583959996700287,-0.3043636083602905
1682879954981487400,19.0054873046875,0.4314235746860504,0.33628132939338684,0.009773843921720982
1682879954998357500,19.022357421875,0.4366159439086914,-0.00366519158706069,0.22311852872371674
1682879955015226000,19.03922607421875,0.4888449013233185,-0.15042556822299957,0.2292271852493286
1682879955032100600,19.0561005859375,0.8458956480026245,0.8576548099517822,-0.31902438402175903
1682879955048973300,19.072973388671876,0.6950119137763977,1.6218472719192505,-0.5163338780403137
1682879955065843500,19.089843505859374,0.6782131195068359,1.536631464958191,-0.5141957998275757
1682879955082716200,19.106716064453124,0.6207917928695679,1.2124147415161133,-0.513737678527832
1682879955099586600,19.123586669921874,0.589179515838623,0.802524209022522,-0.5441282391548157
1682879955116456200,19.140456298828123,0.5578727126121521,0.5209153294563293,-0.6236934065818787
1682879955133332200,19.157332275390626,0.49724429845809937,0.4824308156967163,-0.6801984310150146
1682879955150200000,19.174199951171875,0.4202753007411957,0.5844452977180481,-0.6307183504104614
1682879955167072300,19.191072265625,0.3683517575263977,0.7383833527565002,-0.49266281723976135
1682879955183942400,19.2079423828125,0.3758348524570465,0.8675813674926758,-0.3246748745441437
1682879955200818200,19.224818115234374,0.3969096839427948,0.9566149711608887,-0.1915062516927719
1682879955217687800,19.241687744140624,0.37262779474258423,0.9572258591651917,-0.05192354694008827
1682879955234555400,19.258555419921876,0.2828305959701538,0.8061894178390503,0.15515977144241333
1682879955251433500,19.27543359375,0.11713340878486633,0.4931209683418274,0.3686571717262268
1682879955268301000,19.292301025390625,-0.08704829961061478,0.04917465150356293,0.5241223573684692
1682879955285170200,19.309170166015626,-0.3599523603916168,-0.4303545653820038,0.6032294034957886
1682879955302044000,19.3260439453125,-0.6884451508522034,-0.873842716217041,0.6204863786697388
1682879955318920700,19.342920654296876,-1.0082330703735352,-1.2185235023498535,0.6207917928695679
1682879955335787000,19.359787109375,-1.2527319192886353,-1.5140295028686523,0.6394231915473938
1682879955352659700,19.37665966796875,-1.359175205230713,-1.9309450387954712,0.6606507897377014
1682879955369530000,19.393530029296876,-1.3571898937225342,-2.4193317890167236,0.6620252132415771
1682879955386402800,19.41040283203125,-1.1884382963180542,-2.579225778579712,0.5952881574630737
1682879955403273200,19.427273193359376,-0.8961393237113953,-2.090686321258545,0.5426010489463806
1682879955420139300,19.44413916015625,-0.6751587986946106,-0.945772111415863,0.6269004344940186
1682879955437013800,19.461013671875,-0.456163614988327,0.22082778811454773,0.5198463201522827
1682879955453890600,19.477890625,-0.34636059403419495,0.589179515838623,0.2681698501110077
1682879955470759000,19.494759033203124,-0.2203696370124817,0.6038402915000916,0.26801711320877075
1682879955487631600,19.511631591796874,-0.05665775015950203,0.8107708692550659,0.4184426963329315
1682879955504502000,19.528501953125,-0.020311269909143448,0.8423831462860107,0.5198463201522827
1682879955521374500,19.54537451171875,-0.0429132841527462,0.6803511381149292,0.4899139404296875
1682879955538242300,19.5622421875,-0.11362093687057495,0.40133845806121826,0.4853324294090271
1682879955555119900,19.579119873046874,-0.21013765037059784,0.3452915847301483,0.4827362596988678
1682879955571987700,19.59598779296875,-0.30115658044815063,0.47051894664764404,0.44516804814338684
1682879955588860000,19.61285986328125,-0.347276896238327,0.4389066696166992,0.4668537676334381
1682879955605730600,19.62973046875,-0.3419318199157715,0.22052235901355743,0.5468770861625671
1682879955622603300,19.646603271484373,-0.3095559775829315,0.03588833287358284,0.5931501388549805
1682879955639470800,19.663470947265626,-0.289244681596756,0.0503963828086853,0.5398521423339844
1682879955656344300,19.68034423828125,-0.28466320037841797,0.06811147183179855,0.3718642294406891
1682879955673218600,19.697218505859375,-0.2955060601234436,-0.013133603148162365,0.18387043476104736
1682879955690088700,19.714088623046877,-0.28909197449684143,-0.09193521738052368,0.008399397134780884
1682879955706959400,19.73095947265625,-0.2877175211906433,-0.1414152979850769,-0.13271047174930573
1682879955723832000,19.74783203125,-0.29764407873153687,-0.24434609711170197,-0.23182335495948792
1682879955740691700,19.764691650390624,-0.2399173229932785,-0.413555771112442,-0.2796235680580139
1682879955757575200,19.7815751953125,-0.050854530185461044,-0.45005497336387634,-0.25335636734962463
1682879955774445600,19.798445556640626,0.20570887625217438,-0.27458393573760986,-0.1866193264722824
1682879955791317800,19.81531787109375,0.47219884395599365,-0.03237585723400116,-0.16340644657611847
1682879955808188400,19.8321884765625,0.6553056836128235,0.14340060949325562,-0.17837265133857727
1682879955825060400,19.849060302734376,0.7438811659812927,0.24648413062095642,-0.2142609804868698
1682879955841931000,19.865930908203126,0.783892810344696,0.3147483170032501,-0.22999076545238495
1682879955858803700,19.8828037109375,0.7968736886978149,0.35873061418533325,-0.1976149082183838
1682879955875674000,19.899674072265626,0.7765624523162842,0.35964691638946533,-0.14126259088516235
1682879955892533800,19.91653369140625,0.674089789390564,0.16111570596694946,-0.1290452778339386
1682879955909417000,19.9334169921875,0.4489859640598297,-0.2730567753314972,-0.2600758671760559
1682879955926286800,19.950286865234375,0.2119702398777008,-0.5885686874389648,-0.5073235630989075
1682879955943162000,19.967162109375,0.09193521738052368,-0.5737552046775818,-0.6618725061416626
1682879955960032500,19.984032470703124,0.06765332818031311,-0.34834590554237366,-0.6730207800865173
1682879955976903200,20.000903076171873,0.06475171446800232,-0.37110063433647156,-0.6444628238677979
1682879955993765000,20.01776513671875,0.02825251780450344,-0.6843217611312866,-0.6427829265594482
1682879956010645800,20.034645751953125,0.026572637259960175,-0.7603744864463806,-0.6041457056999207
1682879956027518500,20.0515185546875,0.16722436249256134,-0.37522396445274353,-0.4386012554168701
1682879956044388600,20.068388671875,0.6466008424758911,0.7455610036849976,-0.5404630303382874
1682879956061261000,20.085260986328127,1.0261008739471436,2.7687466144561768,-1.1959214210510254
1682879956078131700,20.102131591796876,0.7576256394386292,2.342668294906616,-0.8584184050559998
1682879956095004000,20.11900390625,0.7463245987892151,1.7351627349853516,-0.6377432942390442
1682879956111874600,20.13587451171875,0.7461718916893005,1.1804970502853394,-0.4964807331562042
1682879956128747300,20.152747314453126,0.6687447428703308,0.661719799041748,-0.42928555607795715
1682879956145605600,20.169605712890625,0.5074763298034668,0.4210388660430908,-0.32986724376678467
1682879956162489900,20.18648974609375,0.3478877544403076,0.3833179473876953,-0.18509216606616974
1682879956179360300,20.2033603515625,0.25213462114334106,0.33276882767677307,-0.01542434748262167
1682879956196230100,20.220230224609374,0.10644327104091644,0.19624045491218567,0.09010262042284012
1682879956213103000,20.23710302734375,-0.1059851199388504,-0.17150041460990906,0.15332718193531036
1682879956229978600,20.253978515625,-0.28878653049468994,-0.5765040516853333,0.32070425152778625
1682879956246846200,20.27084619140625,-0.44058656692504883,-0.770301103591919,0.5635231733322144
1682879956263718700,20.28771875,-0.5865833759307861,-0.9204211831092834,0.7560984492301941
1682879956280579800,20.304579833984373,-0.7499898076057434,-1.3608551025390625,0.7553348541259766
1682879956297461500,20.32146142578125,-0.9666942358016968,-1.928807020187378,0.697149932384491
1682879956314332000,20.338331787109375,-1.1119275093078613,-2.23591947555542,0.7611380815505981
1682879956331204600,20.35520458984375,-0.8938485980033875,-1.9295705556869507,0.727998673915863
1682879956348062200,20.372062255859376,-0.5028948187828064,-0.8863654732704163,0.5363397002220154
1682879956364941000,20.388941162109376,-0.432645320892334,0.13866640627384186,0.3130684494972229
1682879956381819400,20.4058193359375,-0.41202861070632935,0.2977968156337738,0.14905111491680145
1682879956398690300,20.422690185546877,-0.30925053358078003,0.3338378667831421,0.11041389405727386
1682879956415560400,20.439560546875,-0.27320948243141174,0.29245173931121826,0.1560760736465454
1682879956432433200,20.45643310546875,-0.3248275816440582,0.18555031716823578,0.30741792917251587
1682879956449303600,20.473303466796875,-0.327729195356369,0.20357084274291992,0.4335615932941437
1682879956466173000,20.4901728515625,-0.31352660059928894,0.2770273983478546,0.46639561653137207
1682879956483050000,20.507050048828123,-0.2900082767009735,0.22220222651958466,0.503047525882721
1682879956499919000,20.523919189453125,-0.2535090744495392,0.1820378452539444,0.5619960427284241
1682879956516786700,20.54078662109375,-0.20341812074184418,0.2919935882091522,0.5965099334716797
1682879956533664500,20.55766455078125,-0.17760907113552094,0.38667771220207214,0.5920811295509338
1682879956550521900,20.57452197265625,-0.2070833146572113,0.35705074667930603,0.555429220199585
1682879956567403300,20.5914033203125,-0.2791654169559479,0.19608774781227112,0.4737260043621063
1682879956584277500,20.608277587890626,-0.3675881624221802,-0.11575896292924881,0.3689626157283783
1682879956601148000,20.62514794921875,-0.44028112292289734,-0.3341432809829712,0.24953845143318176
1682879956618017300,20.642017333984374,-0.44852781295776367,-0.3323107063770294,0.13209961354732513
1682879956634891500,20.6588916015625,-0.40973785519599915,-0.2122756689786911,0.05604688450694084
1682879956651761000,20.675760986328125,-0.3355177342891693,-0.07391469180583954,0.03894266113638878
1682879956668630800,20.692630859375,-0.19318613409996033,-0.04108068719506264,0.035124752670526505
1682879956685507000,20.709507080078126,-0.03680463135242462,-0.15286903083324432,0.005955935921519995
1682879956702376700,20.726376708984375,0.10934487730264664,-0.2672535479068756,-0.07223481684923172
1682879956719244500,20.74324462890625,0.24068090319633484,-0.19853121042251587,-0.1976149082183838
1682879956736120800,20.760120849609375,0.35674530267715454,0.02886338345706463,-0.34025195240974426
1682879956752990500,20.776990478515625,0.4870123267173767,0.24190263450145721,-0.43188172578811646
1682879956769862100,20.793862060546875,0.5954409241676331,0.32268956303596497,-0.45692721009254456
1682879956786733000,20.810733154296877,0.6632469296455383,0.2562579810619354,-0.37491855025291443
1682879956803605200,20.827605224609375,0.7047857642173767,0.19608774781227112,-0.20494529604911804
1682879956820465200,20.844465087890626,0.6892086863517761,0.09010262042284012,-0.10613783448934555
1682879956837348400,20.861348388671875,0.5963571667671204,-0.03848451003432274,-0.14004085958003998
1682879956854218500,20.878218505859376,0.47311514616012573,-0.1976149082183838,-0.25182920694351196
1682879956871091000,20.895091064453126,0.3568980097770691,-0.3225368559360504,-0.3816380500793457
1682879956887950800,20.911950927734374,0.26419922709465027,-0.28680121898651123,-0.536797821521759
1682879956904833800,20.928833740234374,0.1661553531885147,-0.38209620118141174,-0.6808093190193176
1682879956921704400,20.945704345703124,0.08536841720342636,-0.6200281977653503,-0.7521278262138367
1682879956938572500,20.962572509765625,0.038026362657547,-0.7202101349830627,-0.7858781218528748
1682879956955447600,20.979447509765624,0.07040221989154816,-0.45204028487205505,-0.7339546084403992
1682879956972319700,20.99631982421875,0.20463985204696655,0.061391957104206085,-0.5494732856750488
1682879956989190000,21.01318994140625,1.8278615474700928,3.324939489364624,-1.933541178703308
