time,seconds_elapsed,z,y,x
1682933646094084600,0.218084716796875,-0.5078797340393066,0.09488439559936523,-0.3809267282485962
1682933646110957600,0.23495751953125,-0.913388729095459,0.015964984893798828,0.005873203277587891
1682933646127819000,0.251819091796875,-0.13927936553955078,0.024436473846435547,0.5234081745147705
1682933646144703200,0.268703125,-0.21750497817993164,-0.2471914291381836,0.6156408786773682
1682933646161566200,0.285566162109375,-0.07765960693359375,-0.5465006828308105,0.7017384767532349
1682933646178443800,0.30244384765625,-0.5503191947937012,-0.49849891662597656,0.41440439224243164
1682933646195317200,0.319317138671875,-0.9243178367614746,-0.15118646621704102,0.26751506328582764
1682933646212204300,0.336204345703125,-0.21053075790405273,0.8109297752380371,0.2461104393005371
1682933646229073400,0.353073486328125,-0.47574853897094727,0.3201456069946289,0.36713647842407227
1682933646245941200,0.369941162109375,-0.7364144325256348,0.24384689331054688,0.17213881015777588
1682933646262832000,0.38683203125,1.123828411102295,1.0130996704101562,-0.09620368480682373
1682933646279703600,0.40370361328125,1.25215482711792,1.1709809303283691,-0.07530534267425537
1682933646296571400,0.4205712890625,1.6346325874328613,0.881476879119873,0.12918293476104736
1682933646313457700,0.437457763671875,0.866485595703125,0.8560428619384766,0.5009177923202515
1682933646330319600,0.454319580078125,-0.20275497436523438,1.5293912887573242,0.4243425130844116
1682933646347193300,0.471193359375,-0.5117907524108887,1.1324224472045898,0.7034001350402832
1682933646364061200,0.488061279296875,0.029224872589111328,1.168013095855713,0.6818526983261108
1682933646380941000,0.504941162109375,0.8760509490966797,1.569796085357666,0.040064215660095215
1682933646397815000,0.52181494140625,1.1270055770874023,2.172302722930908,-0.5776398777961731
1682933646414681300,0.538681396484375,1.3329458236694336,2.0203771591186523,-1.1458690166473389
1682933646431563500,0.5555634765625,0.5017251968383789,2.015108108520508,-1.0115959644317627
1682933646448426800,0.5724267578125,-0.12096071243286133,1.4410176277160645,-0.7924001216888428
1682933646465311000,0.58931103515625,-1.0959267616271973,0.7680974006652832,-0.34765365719795227
1682933646482177500,0.606177490234375,-1.2867975234985352,0.24318742752075195,0.11456450819969177
1682933646499057000,0.623056884765625,-1.4047465324401855,0.3115544319152832,-0.14626041054725647
1682933646515935500,0.639935546875,-1.0995097160339355,-0.015551090240478516,-1.1324999332427979
1682933646532807200,0.65680712890625,-1.7938156127929688,0.5464577674865723,-2.136021375656128
1682933646549681000,0.673680908203125,-1.3198084831237793,0.8527183532714844,-2.2922863960266113
1682933646566555000,0.690554931640625,-1.9921894073486328,0.8592395782470703,-0.5477336645126343
1682933646583413000,0.7074130859375,-0.16902828216552734,-0.0998845100402832,0.604217529296875
1682933646600293600,0.724293701171875,-0.2423248291015625,-0.3026714324951172,1.1381595134735107
1682933646617176800,0.7411767578125,-0.8022370338439941,-0.9294211864471436,1.7512048482894897
1682933646634050800,0.75805078125,-1.4406013488769531,-1.0554113388061523,1.6063942909240723
1682933646650924500,0.774924560546875,-1.8296685218811035,-1.4086618423461914,0.8905978202819824
1682933646667799000,0.791799072265625,-2.5146899223327637,-1.1723294258117676,0.705378532409668
1682933646684672800,0.8086728515625,-1.4423480033874512,-0.04670906066894531,1.6222989559173584
1682933646701546500,0.82554638671875,-0.7627644538879395,0.7407128810882568,2.387138843536377
1682933646718402300,0.84240234375,-0.42504119873046875,0.3414483070373535,2.5079944133758545
1682933646735293200,0.859293212890625,-1.4082107543945312,-0.20828723907470703,2.281363010406494
1682933646752170200,0.876170166015625,-1.2724766731262207,-0.5444016456604004,1.7447534799575806
1682933646769038300,0.893038330078125,-1.6805434226989746,-0.1523423194885254,1.287179708480835
1682933646785919200,0.909919189453125,-0.7673864364624023,1.1460821628570557,1.3105026483535767
1682933646802790700,0.926790771484375,-1.279768466949463,1.2184689044952393,0.9630911350250244
1682933646819662600,0.94366259765625,-1.2304635047912598,0.5331583023071289,1.4012908935546875
1682933646836540200,0.9605400390625,0.7439708709716797,2.110119342803955,0.7239499092102051
1682933646853410600,0.97741064453125,4.314443588256836,2.871032476425171,-1.3192341327667236
1682933646870289200,0.9942890625,-0.290191650390625,2.2008910179138184,-0.002153158187866211
1682933646887160600,1.01116064453125,-3.5576109886169434,1.0115504264831543,1.520556926727295
1682933646904022300,1.028022216796875,-2.3973913192749023,1.2527539730072021,1.946600079536438
1682933646920889900,1.044889892578125,-0.18757057189941406,2.007413148880005,1.9669830799102783
1682933646937780500,1.061780517578125,2.4793081283569336,2.383394241333008,1.7483577728271484
1682933646954658300,1.078658203125,-0.12259483337402344,1.146949052810669,2.220231533050537
1682933646971530800,1.09553076171875,-0.768768310546875,1.8557696342468262,3.180136203765869
1682933646988406800,1.11240673828125,-2.5122170448303223,2.050755023956299,1.8554450273513794
1682933647005276000,1.12927587890625,-1.7435393333435059,0.30468034744262695,1.6791013479232788
1682933647022151700,1.146151611328125,-2.5944457054138184,0.4808140993118286,2.5272679328918457
1682933647039026000,1.16302587890625,-4.30867862701416,2.05887508392334,3.511427640914917
1682933647055897900,1.17989794921875,-4.351785659790039,2.513240337371826,4.0167236328125
1682933647072769800,1.196769775390625,-3.8263163566589355,2.29099702835083,4.057622909545898
1682933647089652700,1.21365283203125,-3.592142105102539,0.5111147165298462,3.6905813217163086
1682933647106519300,1.230519287109375,0.015923500061035156,0.7868701219558716,4.507906913757324
1682933647123385600,1.247385498046875,0.7592906951904297,1.1243335008621216,4.089650630950928
1682933647140269600,1.26426953125,-0.4141111373901367,1.8018392324447632,3.9666507244110107
1682933647157147400,1.2811474609375,0.7039194107055664,-0.2753694951534271,4.852707862854004
1682933647174018000,1.29801806640625,2.153456687927246,-1.4495017528533936,3.954070806503296
1682933647190892300,1.314892333984375,1.8781795501708984,-1.6652336120605469,2.7759697437286377
1682933647207766300,1.331766357421875,-0.18597793579101562,-0.11703383922576904,2.4432451725006104
1682933647224637400,1.348637451171875,-1.5381145477294922,1.5985885858535767,2.429839849472046
1682933647241516800,1.365516845703125,-1.6582098007202148,0.34714633226394653,3.620466709136963
1682933647258388200,1.38238818359375,-0.48399829864501953,-1.3255285024642944,3.8275935649871826
1682933647275262000,1.399261962890625,-0.7873983383178711,0.12306097149848938,3.8199002742767334
1682933647292126200,1.416126220703125,-0.9655551910400391,2.7087037563323975,4.524461269378662
1682933647308999700,1.432999755859375,-0.6798458099365234,5.295400142669678,5.912988185882568
1682933647325876000,1.4498759765625,-0.42557334899902344,4.9685773849487305,8.705201148986816
1682933647342747100,1.4667470703125,0.9358730316162109,6.94921875,10.373977661132812
1682933647359623200,1.483623046875,3.7998623847961426,9.96683120727539,13.762876510620117
1682933647376496600,1.50049658203125,7.229273796081543,11.197970390319824,16.596860885620117
1682933647393373700,1.517373779296875,8.256671905517578,13.12736988067627,19.942855834960938
1682933647410256400,1.53425634765625,8.11086368560791,14.628478050231934,22.828632354736328
1682933647427127000,1.551126953125,8.767086029052734,14.753952026367188,25.226116180419922
1682933647444003300,1.56800341796875,11.22414493560791,12.918728828430176,28.99399757385254
1682933647460873500,1.58487353515625,15.184368133544922,10.212718963623047,31.701282501220703
1682933647477748000,1.601748046875,19.985248565673828,6.128478527069092,31.55443000793457
1682933647494625500,1.61862548828125,22.569978713989258,0.9413671493530273,29.649085998535156
1682933647511497700,1.635497802734375,21.254228591918945,-2.1188712120056152,25.70660400390625
1682933647528371700,1.652371826171875,16.564708709716797,-4.804411888122559,20.848478317260742
1682933647545245700,1.66924560546875,12.248218536376953,-7.768620491027832,16.817310333251953
1682933647562120200,1.6861201171875,8.969430923461914,-9.227070808410645,14.877683639526367
1682933647578995000,1.702994873046875,12.24579906463623,-9.05860424041748,14.991098403930664
1682933647595866600,1.71986669921875,15.5103120803833,-8.171406745910645,16.22463035583496
1682933647612742100,1.7367421875,16.03623390197754,-7.68103551864624,15.644548416137695
1682933647629615600,1.75361572265625,14.002938270568848,-8.097502708435059,15.77782917022705
1682933647646489600,1.770489501953125,11.67419719696045,-8.368210792541504,16.17783546447754
1682933647663360000,1.787360107421875,8.637425422668457,-7.042481422424316,17.26058578491211
1682933647680234500,1.804234375,8.036441802978516,-7.034454345703125,18.09368133544922
1682933647697111800,1.82111181640625,8.020171165466309,-7.032786846160889,19.203113555908203
1682933647713986300,1.837986328125,6.928816795349121,-6.947921276092529,20.075942993164062
1682933647730857500,1.854857421875,6.41534423828125,-5.8270063400268555,21.916772842407227
1682933647747731500,1.8717314453125,6.0678300857543945,-3.005476474761963,23.813678741455078
1682933647764610000,1.888610107421875,5.4186930656433105,-2.950725793838501,23.468059539794922
1682933647781479200,1.905479248046875,4.894176006317139,-4.84437370300293,22.496370315551758
1682933647798358800,1.92235888671875,5.1357598304748535,-6.644243240356445,20.723093032836914
1682933647815230000,1.93922998046875,5.544493675231934,-7.308359146118164,16.411176681518555
1682933647832103700,1.956103759765625,7.798778057098389,-9.723621368408203,11.269393920898438
1682933647848975000,1.97297509765625,8.961495399475098,-15.706825256347656,8.718900680541992
1682933647865854500,1.9898544921875,9.543415069580078,-21.130369186401367,0.19087791442871094
1682933647882715600,2.006715576171875,8.331474304199219,-28.11934471130371,-10.675063133239746
1682933647899600100,2.02360009765625,10.193199157714844,-42.7928466796875,-17.29116439819336
1682933647916473900,2.040473876953125,11.767987251281738,-51.46961212158203,-16.644956588745117
1682933647933347800,2.057347900390625,12.333147048950195,-47.99234390258789,-14.04405403137207
1682933647950211600,2.074211669921875,10.279932022094727,-45.044864654541016,-8.323857307434082
1682933647967096000,2.091095947265625,6.137845993041992,-41.4943962097168,0.2343149185180664
1682933647983969800,2.1079697265625,2.8229544162750244,-34.24358367919922,12.436834335327148
1682933648000843800,2.12484375,0.3012387752532959,-28.2987117767334,24.711578369140625
1682933648017718000,2.141718017578125,0.1522536277770996,-23.930770874023438,35.61265563964844
1682933648034589200,2.158589111328125,3.761705160140991,-18.60809898376465,43.47454833984375
1682933648051468500,2.175468505859375,6.158989906311035,-13.415283203125,46.17923355102539
1682933648068337700,2.192337646484375,7.769869804382324,-10.282676696777344,46.42589569091797
1682933648085206000,2.2092060546875,10.044672012329102,-8.222929954528809,45.92195129394531
1682933648102087700,2.226087646484375,11.871087074279785,-5.449359893798828,43.69206619262695
1682933648118961700,2.242961669921875,12.57826042175293,-3.182918071746826,38.872554779052734
1682933648135832300,2.259832275390625,10.957313537597656,-4.331709384918213,34.49579620361328
1682933648152710100,2.276710205078125,9.750995635986328,-4.7412567138671875,30.09552764892578
1682933648169584000,2.293584228515625,9.750550270080566,-4.442872047424316,26.909252166748047
1682933648186457900,2.310457763671875,9.666753768920898,-4.173288345336914,24.30145263671875
1682933648203329300,2.327329345703125,9.28518009185791,-3.903628349304199,21.366928100585938
1682933648220208600,2.344208740234375,7.839940071105957,-3.957095146179199,18.844280242919922
1682933648237089300,2.36108935546875,6.783281326293945,-2.988462448120117,17.758651733398438
1682933648253951500,2.377951416015625,7.427181720733643,-1.4998552799224854,17.38936996459961
1682933648270826800,2.39482666015625,7.8189616203308105,2.7542905807495117,18.13332748413086
1682933648287702000,2.411701904296875,3.645474672317505,7.35669469833374,21.830459594726562
1682933648304571100,2.428571044921875,-7.218674182891846,14.665905952453613,27.14411163330078
1682933648321452000,2.4454521484375,-12.692276000976562,26.368606567382812,33.67151641845703
1682933648338324200,2.46232421875,-9.491841316223145,40.03438949584961,39.11796951293945
1682933648355195400,2.4791953125,-9.048452377319336,41.12425994873047,43.43499755859375
1682933648372075000,2.496074951171875,-8.967307090759277,41.087284088134766,46.403873443603516
1682933648388943600,2.512943603515625,-10.301677703857422,38.0075798034668,48.804595947265625
1682933648405832000,2.52983203125,-12.62318229675293,37.61135482788086,51.24664306640625
1682933648422694400,2.5466943359375,-7.688960075378418,34.639163970947266,47.034423828125
1682933648439565600,2.563565673828125,-1.1880744695663452,28.171558380126953,40.30255889892578
1682933648456444700,2.580444580078125,-2.3265368938446045,21.95980453491211,32.96180725097656
1682933648473316000,2.597316162109375,-1.6180249452590942,13.752816200256348,27.6607666015625
1682933648490190300,2.6141904296875,3.993583917617798,7.563072681427002,24.90731430053711
1682933648507065300,2.6310654296875,6.755880355834961,1.6947431564331055,22.454730987548828
1682933648523937300,2.647937255859375,8.535703659057617,-3.8313400745391846,20.67926025390625
1682933648540812800,2.664812744140625,11.084478378295898,-7.6966352462768555,21.15802764892578
1682933648557686000,2.68168603515625,9.51594066619873,-9.687737464904785,22.461044311523438
1682933648574560500,2.698560546875,8.993354797363281,-12.519159317016602,23.74209213256836
1682933648591425800,2.71542578125,11.652642250061035,-15.175453186035156,25.39010238647461
1682933648608308700,2.732308837890625,13.318779945373535,-16.959636688232422,26.618051528930664
1682933648625172000,2.749171875,12.340850830078125,-18.14461326599121,26.195049285888672
1682933648642056700,2.766056640625,12.864442825317383,-16.670669555664062,26.090511322021484
1682933648658930700,2.7829306640625,14.209477424621582,-15.297967910766602,26.637990951538086
1682933648675802000,2.799802001953125,13.371652603149414,-13.258147239685059,28.060443878173828
1682933648692681000,2.816680908203125,12.364039421081543,-11.552518844604492,30.566509246826172
1682933648709549800,2.8335498046875,13.038501739501953,-8.918352127075195,33.28461456298828
1682933648726429200,2.85042919921875,13.939682006835938,-7.881121635437012,34.104820251464844
1682933648743300600,2.867300537109375,12.7528715133667,-8.355203628540039,32.86152648925781
1682933648760164000,2.8841640625,10.420334815979004,-8.527887344360352,30.20999526977539
1682933648777048800,2.901048828125,10.033859252929688,-11.32879638671875,25.52283477783203
1682933648793922800,2.9179228515625,9.969937324523926,-13.612384796142578,18.350341796875
1682933648810796800,2.934796875,9.067476272583008,-19.473695755004883,10.348220825195312
1682933648827670500,2.95167041015625,11.274801254272461,-24.71421241760254,-1.1400375366210938
1682933648844545000,2.968544921875,9.414732933044434,-40.96675491333008,-10.224452018737793
1682933648861418800,2.985418701171875,8.297392845153809,-53.57857894897461,-13.73575210571289
1682933648878300000,3.0022998046875,7.018888473510742,-50.891536712646484,-14.955446243286133
1682933648895167000,3.0191669921875,2.3013925552368164,-54.06031036376953,-13.810751914978027
1682933648912049700,3.036049560546875,4.73841667175293,-57.519309997558594,-10.577680587768555
1682933648928914700,3.052914794921875,5.796091079711914,-54.860252380371094,-0.5348262786865234
1682933648945778400,3.0697783203125,0.6349539756774902,-45.42914962768555,12.314155578613281
1682933648962663200,3.0866630859375,-2.2871809005737305,-31.798324584960938,28.007465362548828
1682933648979534600,3.10353466796875,0.44670867919921875,-18.771026611328125,39.774635314941406
1682933648996412400,3.120412353515625,5.515347957611084,-10.87679386138916,45.471946716308594
1682933649013269500,3.13726953125,9.179595947265625,-6.36476993560791,46.56734085083008
1682933649030157800,3.15415771484375,10.219511985778809,-5.254744052886963,43.568538665771484
1682933649047034600,3.17103466796875,11.278966903686523,-4.053129196166992,41.21942138671875
1682933649063896800,3.187896728515625,12.140693664550781,-2.8900375366210938,38.72389221191406
1682933649080781000,3.204781005859375,12.039108276367188,-2.725355625152588,35.13225173950195
1682933649097655300,3.2216552734375,12.21408462524414,-3.894942283630371,31.069120407104492
1682933649114529000,3.238529052734375,12.989720344543457,-4.280524253845215,27.429136276245117
1682933649131403500,3.255403564453125,13.818562507629395,-4.483208179473877,24.457456588745117
1682933649148277500,3.272277587890625,13.321992874145508,-5.154069900512695,21.732324600219727
1682933649165151200,3.289151123046875,12.044265747070312,-3.8399102687835693,19.876663208007812
1682933649182014700,3.3060146484375,11.030052185058594,-3.865772247314453,17.60415267944336
1682933649198899200,3.322899169921875,10.65125846862793,-4.524775505065918,15.939477920532227
1682933649215773200,3.339773193359375,11.724150657653809,-2.738539934158325,16.273351669311523
1682933649232649700,3.356649658203125,11.243783950805664,-0.24680376052856445,17.147262573242188
1682933649249522000,3.37352197265625,6.278879165649414,6.238414764404297,18.464786529541016
1682933649266385000,3.390385009765625,2.1963250637054443,13.701423645019531,25.72327423095703
1682933649283279400,3.407279296875,-1.683929204940796,21.789331436157227,31.051143646240234
1682933649300130800,3.424130859375,2.936948776245117,28.80311393737793,37.98904037475586
1682933649317023500,3.4410234375,3.5459251403808594,35.22296905517578,42.958251953125
1682933649333888300,3.45788818359375,5.874939918518066,39.27400588989258,49.3217887878418
1682933649350763300,3.47476318359375,13.224215507507324,43.27862548828125,51.070960998535156
1682933649367632000,3.4916318359375,15.772950172424316,44.33407974243164,49.758750915527344
1682933649384514000,3.50851416015625,12.22671890258789,46.69355773925781,44.913055419921875
1682933649401388000,3.525387939453125,7.617046356201172,43.70514678955078,37.03069305419922
1682933649418262000,3.542261962890625,5.592706680297852,31.253772735595703,27.653213500976562
1682933649435134500,3.559134521484375,2.801762819290161,21.399742126464844,20.907371520996094
1682933649452011800,3.57601171875,4.09635591506958,15.362773895263672,18.58332061767578
1682933649468884000,3.592884033203125,3.423645257949829,7.358155250549316,18.451919555664062
1682933649485755600,3.609755615234375,3.3747923374176025,-1.8225493431091309,18.974191665649414
1682933649502634800,3.626634765625,4.488090515136719,-7.365706443786621,20.03926658630371
1682933649519494100,3.643494140625,8.407867431640625,-9.876373291015625,22.912839889526367
1682933649536369200,3.660369140625,15.411667823791504,-11.709805488586426,26.591262817382812
1682933649553242000,3.6772421875,18.921239852905273,-13.168939590454102,28.135807037353516
1682933649570125800,3.694125732421875,17.605432510375977,-14.557683944702148,29.098901748657227
1682933649587002400,3.71100244140625,15.324605941772461,-13.791119575500488,30.732263565063477
1682933649603882000,3.727882080078125,13.743148803710938,-13.093323707580566,32.962425231933594
1682933649620747800,3.744747802734375,13.947371482849121,-12.171249389648438,34.690025329589844
1682933649637624000,3.7616240234375,15.205343246459961,-10.908404350280762,36.03704833984375
1682933649654503400,3.77850341796875,14.313773155212402,-10.56882381439209,38.00301742553711
1682933649671372800,3.795372802734375,11.823173522949219,-11.194295883178711,39.38739776611328
1682933649688249300,3.812249267578125,9.348865509033203,-12.16163158416748,39.33201217651367
1682933649705118200,3.8291181640625,9.747906684875488,-12.308212280273438,35.58741760253906
1682933649721994500,3.845994384765625,12.126354217529297,-14.575940132141113,30.97427749633789
1682933649738868500,3.862868408203125,12.592140197753906,-17.902050018310547,22.994388580322266
1682933649755742700,3.87974267578125,4.152108669281006,-24.440811157226562,15.36568832397461
1682933649772617000,3.896616943359375,3.3725483417510986,-33.58097457885742,1.3177757263183594
1682933649789491200,3.9134912109375,8.380200386047363,-48.25807189941406,-9.469895362854004
1682933649806371800,3.930371826171875,6.250452518463135,-66.1551513671875,-18.858055114746094
1682933649823228200,3.947228271484375,4.366212844848633,-71.1144027709961,-21.64093589782715
1682933649840113000,3.96411279296875,2.5591211318969727,-62.584983825683594,-15.400019645690918
1682933649856987100,3.980987060546875,2.591416358947754,-56.0220947265625,-6.234140396118164
1682933649873851100,3.99785107421875,2.877763271331787,-48.54364013671875,6.6871795654296875
1682933649890733000,4.014733154296875,4.197686672210693,-39.543941497802734,20.569982528686523
1682933649907611400,4.031611328125,5.418503761291504,-27.38157081604004,34.23760223388672
1682933649924483300,4.0484833984375,5.400832176208496,-16.35181427001953,43.7845344543457
1682933649941354800,4.065354736328125,5.826940536499023,-10.676202774047852,46.10152053833008
1682933649958231600,4.0822314453125,8.845157623291016,-10.065254211425781,47.02098083496094
1682933649975107800,4.09910791015625,13.76740550994873,-7.613025665283203,46.502174377441406
1682933649991979300,4.115979248046875,15.272554397583008,-6.674158096313477,42.72974395751953
1682933650008853500,4.132853515625,14.336832046508789,-8.403083801269531,38.44963073730469
1682933650025727700,4.149727783203125,12.56076431274414,-8.871055603027344,34.67048645019531
1682933650042601500,4.1666015625,11.970260620117188,-7.1100568771362305,31.895029067993164
1682933650059473400,4.183473388671875,13.712059020996094,-5.966583251953125,28.239540100097656
1682933650076352300,4.200352294921875,15.06312370300293,-6.181786060333252,24.834796905517578
1682933650093229600,4.2172294921875,14.411605834960938,-6.635240077972412,21.944469451904297
1682933650110097700,4.23409765625,12.70720100402832,-6.87005090713501,19.299612045288086
1682933650126971600,4.2509716796875,10.892646789550781,-6.067667007446289,17.402976989746094
1682933650143835400,4.26783544921875,10.640127182006836,-4.74583625793457,16.203155517578125
1682933650160709600,4.284709716796875,9.6810941696167,-3.797727584838867,16.255090713500977
1682933650177594000,4.301593994140625,7.417478561401367,0.48761963844299316,16.8397216796875
1682933650194479000,4.31847900390625,5.625940322875977,11.301871299743652,16.96847915649414
1682933650211344600,4.3353447265625,3.2878353595733643,21.125953674316406,18.195892333984375
1682933650228216000,4.352216064453125,0.1477600336074829,25.501869201660156,22.468765258789062
1682933650245090600,4.369090576171875,4.468957901000977,29.698095321655273,31.35950469970703
1682933650261963500,4.385963623046875,12.874784469604492,38.4097900390625,41.88848876953125
1682933650278835700,4.402835693359375,21.224760055541992,44.650386810302734,51.59303283691406
1682933650295701800,4.41970166015625,22.668899536132812,47.0319938659668,53.54615783691406
1682933650312589800,4.43658984375,18.767677307128906,40.35042190551758,52.940528869628906
1682933650329459700,4.453459716796875,18.98318099975586,40.78388977050781,50.089874267578125
1682933650346334500,4.47033447265625,25.233116149902344,35.70380401611328,44.01323318481445
1682933650363219200,4.48721923828125,22.87343978881836,22.731700897216797,35.08185577392578
1682933650380083000,4.5040830078125,11.70991325378418,15.136031150817871,26.8750057220459
1682933650396956400,4.520956298828125,6.927245616912842,9.552613258361816,21.997726440429688
1682933650413826800,4.537826904296875,4.190587043762207,2.190433979034424,20.62609100341797
1682933650430708700,4.554708740234375,3.847425699234009,-4.346944808959961,22.268918991088867
1682933650447579000,4.571578857421875,6.870741844177246,-9.619150161743164,25.940872192382812
1682933650464452900,4.588452880859375,11.544899940490723,-12.822235107421875,30.545360565185547
1682933650481317400,4.6053173828125,15.085224151611328,-13.026052474975586,33.903656005859375
1682933650498189600,4.622189453125,15.639798164367676,-13.4650239944458,35.762779235839844
1682933650515074800,4.63907470703125,13.014681816101074,-15.82192611694336,37.05233383178711
1682933650531947500,4.655947509765625,10.769312858581543,-15.670639038085938,37.162139892578125
1682933650548812300,4.672812255859375,8.97459602355957,-13.79740047454834,37.05117416381836
1682933650565693200,4.689693115234375,9.084386825561523,-11.252856254577637,37.71546173095703
1682933650582575600,4.70657568359375,9.273204803466797,-8.979629516601562,38.64836120605469
1682933650599444700,4.72344482421875,7.364156723022461,-10.617962837219238,38.96482849121094
1682933650616320300,4.7403203125,4.990928649902344,-12.130661010742188,39.01237487792969
1682933650633186300,4.757186279296875,6.236700534820557,-10.859582901000977,36.57865905761719
1682933650650067700,4.774067626953125,7.190231800079346,-10.886556625366211,33.30983352661133
1682933650666940200,4.790940185546875,6.916778087615967,-13.689135551452637,29.730022430419922
1682933650683807000,4.807806884765625,4.6996989250183105,-18.377126693725586,27.07003402709961
1682933650700689700,4.824689697265625,4.015665054321289,-21.088451385498047,21.54678726196289
1682933650717561300,4.841561279296875,3.4988412857055664,-29.748788833618164,12.668253898620605
1682933650734440700,4.858440673828125,4.582070350646973,-46.62599563598633,0.1374359130859375
1682933650751312100,4.87531201171875,5.724050045013428,-53.74375915527344,-11.172121047973633
1682933650768174300,4.89217431640625,4.448389053344727,-55.42951965332031,-14.867177963256836
1682933650785048600,4.909048583984375,2.985133171081543,-58.17953872680664,-17.715930938720703
1682933650801926700,4.9259267578125,4.136302947998047,-60.20661163330078,-17.583412170410156
1682933650818798600,4.942798583984375,3.0187013149261475,-56.3533821105957,-10.829673767089844
1682933650835672000,4.959672119140625,1.1390397548675537,-46.63199234008789,2.547760009765625
1682933650852549000,4.976549072265625,0.09462809562683105,-36.949405670166016,15.950760841369629
1682933650869420000,4.993419921875,-1.0018651485443115,-28.69127655029297,30.114200592041016
1682933650886295000,5.010294921875,0.892868161201477,-20.14323616027832,46.357032775878906
1682933650903169300,5.027169189453125,5.012847900390625,-9.8008451461792,55.56584167480469
1682933650920045800,5.0440458984375,6.117007255554199,-4.786258697509766,56.335391998291016
1682933650936917000,5.0609169921875,7.554695129394531,-4.816799163818359,52.95212173461914
1682933650953790200,5.077790283203125,10.190766334533691,-4.333525657653809,48.17462158203125
1682933650970664200,5.094664306640625,12.74847412109375,-5.2136430740356445,42.624229431152344
1682933650987540500,5.11154052734375,12.337339401245117,-5.363108158111572,38.44723129272461
1682933651004414000,5.1284140625,10.330381393432617,-5.199132919311523,34.48714828491211
1682933651021288000,5.145287841796875,8.972982406616211,-5.281432628631592,30.08587646484375
1682933651038162700,5.16216259765625,8.56564998626709,-5.788260459899902,26.725078582763672
1682933651055035000,5.179034912109375,8.630033493041992,-6.727627277374268,24.64614486694336
1682933651071910400,5.195910400390625,8.301393508911133,-7.313603401184082,23.133758544921875
1682933651088783600,5.21278369140625,6.979287147521973,-5.951269149780273,21.260990142822266
1682933651105659400,5.229659423828125,5.517547607421875,-2.319643259048462,19.191360473632812
1682933651122530800,5.24653076171875,3.780064105987549,0.8350338935852051,18.530914306640625
1682933651139406600,5.263406494140625,3.219475507736206,1.819300651550293,21.523508071899414
1682933651156283100,5.280283203125,1.047214388847351,10.761253356933594,23.54729461669922
1682933651173165800,5.297165771484375,-1.546936273574829,25.515628814697266,30.467254638671875
1682933651190036000,5.314035888671875,-6.283949851989746,31.59575653076172,37.79529571533203
1682933651206908700,5.33090869140625,-6.555360317230225,32.26176452636719,42.92967224121094
1682933651223779600,5.347779541015625,3.5706305503845215,39.31733322143555,51.999515533447266
1682933651240656000,5.36465576171875,11.683370590209961,48.11840057373047,54.53300094604492
1682933651257538800,5.381538818359375,5.657713413238525,45.58787155151367,54.306434631347656
1682933651274408400,5.398408447265625,4.939115524291992,44.49531173706055,53.04716491699219
1682933651291282400,5.415282470703125,9.033771514892578,40.513309478759766,44.32713317871094
1682933651308157000,5.432156982421875,11.987655639648438,27.822338104248047,33.384178161621094
1682933651325030700,5.44903076171875,12.640527725219727,20.01471710205078,25.962982177734375
1682933651341905000,5.46590478515625,8.778029441833496,15.952165603637695,22.267986297607422
1682933651358778600,5.482778564453125,5.359170913696289,11.679374694824219,22.452407836914062
1682933651375652900,5.49965283203125,3.2266111373901367,3.6774239540100098,24.44141387939453
1682933651392526800,5.51652685546875,4.743295192718506,-6.328742504119873,26.798625946044922
1682933651409395200,5.533395263671875,8.638803482055664,-11.58741569519043,28.838294982910156
1682933651426277600,5.550277587890625,12.076391220092773,-14.509526252746582,31.06418228149414
1682933651443138600,5.567138671875,12.158154487609863,-16.80453109741211,32.062442779541016
1682933651460021000,5.58402099609375,11.211974143981934,-17.611669540405273,32.67721176147461
1682933651476899800,5.60089990234375,9.813438415527344,-18.011558532714844,33.429134368896484
1682933651493770500,5.6177705078125,8.387773513793945,-19.19100570678711,35.18071365356445
1682933651510641000,5.634640869140625,8.419807434082031,-17.08846664428711,36.956565856933594
1682933651527515600,5.651515625,9.091367721557617,-14.089031219482422,38.87239456176758
1682933651544398000,5.668398193359375,8.768414497375488,-13.016708374023438,39.22346115112305
1682933651561268200,5.685268310546875,6.883211612701416,-13.399574279785156,38.255733489990234
1682933651578142000,5.702141845703125,4.312623977661133,-15.979230880737305,37.836524963378906
1682933651595011300,5.71901123046875,3.433675765991211,-18.89466094970703,36.360206604003906
1682933651611895000,5.73589501953125,4.182256698608398,-18.579675674438477,33.284690856933594
1682933651628764200,5.75276416015625,5.771854400634766,-14.922409057617188,27.699325561523438
1682933651645638100,5.76963818359375,4.901881217956543,-15.008203506469727,25.001598358154297
1682933651662512600,5.7865126953125,-0.07572197914123535,-23.538240432739258,17.988121032714844
1682933651679384000,5.803384033203125,-5.021024703979492,-36.57417678833008,1.383901596069336
1682933651696270000,5.82027001953125,-4.256147861480713,-62.304656982421875,-14.77027702331543
1682933651713135000,5.837135009765625,3.945765972137451,-77.28187561035156,-23.195755004882812
1682933651730008600,5.854008544921875,4.97687292098999,-73.2188491821289,-24.348140716552734
1682933651746882800,5.8708828125,1.3664230108261108,-64.16620635986328,-17.44687843322754
1682933651763746600,5.88774658203125,1.0790374279022217,-58.124271392822266,-7.895342826843262
1682933651780631000,5.904631103515625,2.7769508361816406,-49.27925491333008,5.269330978393555
1682933651797505500,5.921505615234375,2.8437247276306152,-37.124053955078125,21.029834747314453
1682933651814381000,5.938381103515625,2.139260768890381,-23.19207191467285,36.66449737548828
1682933651831252200,5.955252197265625,1.8696551322937012,-12.552772521972656,46.45759582519531
1682933651848120000,5.9721201171875,2.4890100955963135,-8.379371643066406,48.205230712890625
1682933651865004300,5.98900439453125,3.7308802604675293,-7.692205905914307,44.724971771240234
1682933651881875700,6.005875732421875,5.449545383453369,-8.606873512268066,40.146278381347656
1682933651898747400,6.022747314453125,7.73466682434082,-9.606443405151367,37.364933013916016
1682933651915626500,6.03962646484375,9.498876571655273,-7.615088939666748,36.23082733154297
1682933651932498200,6.056498291015625,10.337886810302734,-6.492708206176758,32.81037139892578
1682933651949369900,6.073369873046875,10.06076431274414,-7.776350021362305,29.322057723999023
1682933651966249000,6.0902490234375,9.494781494140625,-8.350105285644531,26.012924194335938
1682933651983120400,6.107120361328125,8.782489776611328,-8.865310668945312,23.273975372314453
1682933651999993900,6.123993896484375,8.638375282287598,-8.899927139282227,21.48819351196289
1682933652016875800,6.140875732421875,8.489095687866211,-8.266181945800781,19.806556701660156
1682933652033728800,6.157728759765625,8.19378662109375,-8.397235870361328,18.397443771362305
1682933652050594800,6.1745947265625,7.699537754058838,-9.203022003173828,18.112415313720703
1682933652067482400,6.191482421875,7.432382106781006,-9.098280906677246,18.907772064208984
1682933652084361200,6.208361328125,6.105556011199951,-4.291069030761719,19.079357147216797
1682933652101238800,6.22523876953125,7.624127388000488,2.7626583576202393,19.973758697509766
1682933652118113000,6.242113037109375,7.022793769836426,10.961523056030273,23.636550903320312
1682933652134986200,6.258986328125,2.2791595458984375,17.695558547973633,31.5295352935791
1682933652151862500,6.275862548828125,-3.5965585708618164,25.901756286621094,37.44769287109375
1682933652168733200,6.292733154296875,1.953810691833496,36.27067565917969,41.631874084472656
1682933652185612500,6.309612548828125,4.910680294036865,41.13766860961914,51.29922866821289
1682933652202480000,6.326480224609375,8.702435493469238,53.57868957519531,56.547054290771484
1682933652219358700,6.343358642578125,11.815967559814453,52.621891021728516,57.30016326904297
1682933652236229000,6.36022900390625,14.568552017211914,52.8566780090332,51.88920211791992
1682933652253106400,6.3771064453125,20.127450942993164,45.951690673828125,43.25108337402344
1682933652269980700,6.393980712890625,14.349813461303711,27.998727798461914,30.906658172607422
1682933652286854700,6.410854736328125,8.9746675491333,15.481585502624512,21.376319885253906
1682933652303718400,6.427718505859375,7.276984214782715,10.646232604980469,17.409311294555664
1682933652320602600,6.4446025390625,4.7877607345581055,6.535427570343018,16.67460060119629
1682933652337466400,6.46146630859375,2.1261467933654785,-0.27428531646728516,17.643535614013672
1682933652354350800,6.478350830078125,1.6772825717926025,-6.4781951904296875,18.68958282470703
1682933652371224800,6.495224853515625,5.014610767364502,-11.050394058227539,20.37277603149414
1682933652388099000,6.51209912109375,8.610101699829102,-12.408329010009766,22.119752883911133
1682933652404962600,6.528962646484375,10.619773864746094,-13.163070678710938,23.998943328857422
1682933652421847300,6.545847412109375,10.551229476928711,-13.945287704467773,24.829648971557617
1682933652438711000,6.5627109375,8.601943969726562,-14.454490661621094,26.03044319152832
1682933652455595500,6.579595458984375,7.873386383056641,-14.603839874267578,27.411462783813477
1682933652472472000,6.59647216796875,7.031167984008789,-11.902010917663574,29.732215881347656
1682933652489341400,6.613341552734375,6.636478900909424,-10.60763168334961,31.918901443481445
1682933652506220500,6.630220458984375,5.975704669952393,-11.399002075195312,33.3797492980957
1682933652523092200,6.64709228515625,4.005671977996826,-12.34605598449707,35.12754821777344
1682933652539966500,6.663966552734375,3.151082992553711,-12.180490493774414,35.64582443237305
1682933652556840200,6.680840087890625,2.813746452331543,-11.711874008178711,34.156166076660156
1682933652573714400,6.69771435546875,2.815161943435669,-13.206329345703125,33.18274688720703
1682933652590579200,6.7145791015625,2.338627338409424,-14.407546997070312,28.123138427734375
1682933652607458000,6.7314580078125,1.8314926624298096,-16.349647521972656,21.110851287841797
1682933652624337000,6.7483369140625,2.7972493171691895,-25.266374588012695,14.70511245727539
1682933652641211000,6.7652109375,2.461296319961548,-36.23636245727539,2.225698471069336
1682933652658085000,6.782085205078125,3.658083915710449,-52.61482620239258,-9.685184478759766
1682933652674959000,6.798958984375,2.083892583847046,-66.02522277832031,-19.63772964477539
1682933652691844900,6.815844970703125,3.9680304527282715,-66.06661224365234,-22.980865478515625
1682933652708707300,6.832707275390625,5.31180477142334,-59.45230484008789,-16.339279174804688
1682933652725571300,6.8495712890625,4.55070686340332,-52.7799072265625,-6.724011421203613
1682933652742453200,6.866453369140625,4.4125776290893555,-43.34046936035156,4.426685810089111
1682933652759319600,6.883319580078125,3.762787342071533,-33.12520980834961,17.07569122314453
1682933652776207000,6.90020703125,2.1593029499053955,-22.564071655273438,29.99833869934082
1682933652793077200,6.9170771484375,0.9632728099822998,-12.672592163085938,39.892662048339844
1682933652809953500,6.93395361328125,-0.445725679397583,-4.739445209503174,44.87095260620117
1682933652826825200,6.9508251953125,-0.16207218170166016,-2.585660457611084,42.63322448730469
1682933652843690000,6.96768994140625,2.4828290939331055,-5.203780174255371,39.470298767089844
1682933652860574500,6.984574462890625,4.986892223358154,-5.983394145965576,35.62890625
1682933652877450200,7.0014501953125,7.447004318237305,-6.065360069274902,33.44196701049805
1682933652894311200,7.018311279296875,7.568371772766113,-5.87040901184082,30.31332778930664
1682933652911197000,7.035197021484375,6.736052513122559,-6.653556823730469,27.0601749420166
1682933652928071000,7.05207080078125,6.013100624084473,-7.132402420043945,23.403358459472656
1682933652944945400,7.0689453125,5.890207767486572,-8.154698371887207,20.567148208618164
1682933652961819100,7.085819091796875,6.1265869140625,-8.562262535095215,18.481779098510742
1682933652978693400,7.102693359375,6.694351673126221,-9.057098388671875,16.853763580322266
1682933652995567600,7.119567626953125,6.963442802429199,-8.16003131866455,17.180294036865234
1682933653012431000,7.13643115234375,7.107749938964844,-6.370937824249268,16.8717098236084
1682933653029313300,7.153313232421875,7.419519424438477,-4.366338729858398,16.816272735595703
1682933653046200000,7.170199951171875,7.850312232971191,0.8789000511169434,17.66238784790039
1682933653063061500,7.1870615234375,4.844448089599609,9.774351119995117,19.988609313964844
1682933653079941000,7.203941162109375,-0.8329072594642639,17.60076141357422,25.726253509521484
1682933653096815600,7.220815673828125,-5.975372791290283,23.481836318969727,34.70366287231445
1682933653113683700,7.23768359375,-0.2750402092933655,28.531421661376953,43.427146911621094
1682933653130558200,7.25455810546875,8.58360767364502,39.44926071166992,48.196407318115234
1682933653147437300,7.271437255859375,11.061885833740234,46.8889045715332,54.86545944213867
1682933653164309000,7.28830908203125,9.247081756591797,48.41535568237305,54.22969055175781
1682933653181183500,7.30518359375,11.643879890441895,47.006622314453125,47.99225997924805
1682933653198057500,7.322057373046875,17.076143264770508,46.980690002441406,39.25278091430664
1682933653214931500,7.338931396484375,15.931598663330078,38.482669830322266,31.94771957397461
1682933653231803600,7.3558037109375,9.76211166381836,28.342727661132812,25.263938903808594
1682933653248682200,7.37268212890625,5.029759407043457,19.619564056396484,19.8521728515625
1682933653265563400,7.3895634765625,3.8664634227752686,13.95256233215332,19.004947662353516
1682933653282428000,7.406427978515625,5.22023868560791,6.308406352996826,21.6524658203125
1682933653299299300,7.42329931640625,5.747448444366455,-2.6853673458099365,24.50988006591797
1682933653316179000,7.440178955078125,7.2754998207092285,-8.682161331176758,26.20953941345215
1682933653333044500,7.45704443359375,8.743185043334961,-11.360132217407227,27.361799240112305
1682933653349922300,7.47392236328125,8.62872314453125,-13.482592582702637,28.995220184326172
1682933653366801200,7.49080126953125,8.133840560913086,-13.576778411865234,29.539243698120117
1682933653383659500,7.507659423828125,8.715731620788574,-12.881205558776855,30.994722366333008
1682933653400550000,7.5245498046875,8.770565032958984,-11.421300888061523,33.747169494628906
1682933653417418800,7.541418701171875,8.917583465576172,-11.419821739196777,35.60039520263672
1682933653434297900,7.5582978515625,8.00460433959961,-12.031510353088379,36.60057067871094
1682933653451169800,7.575169677734375,4.925275802612305,-12.547189712524414,38.05107879638672
1682933653468043800,7.592043701171875,2.9441170692443848,-12.106154441833496,37.971797943115234
1682933653484915500,7.60891552734375,3.0966391563415527,-12.08586311340332,38.278465270996094
1682933653501794800,7.625794921875,3.3831896781921387,-12.57115650177002,37.635108947753906
1682933653518666000,7.642666015625,3.119060516357422,-14.06983757019043,36.66360092163086
1682933653535540500,7.65954052734375,2.9747495651245117,-16.763412475585938,33.78137969970703
1682933653552414700,7.676414794921875,3.1962199211120605,-16.334915161132812,26.0531005859375
1682933653569286100,7.6932861328125,1.7771828174591064,-26.051286697387695,18.797382354736328
1682933653586165500,7.71016552734375,-0.08217918872833252,-42.67816162109375,3.5629024505615234
1682933653603037200,7.727037109375,-0.39283740520477295,-63.42860412597656,-12.03811264038086
1682933653619900400,7.743900390625,4.606717109680176,-72.91638946533203,-19.987411499023438
1682933653636785000,7.760784912109375,3.781813383102417,-73.49398803710938,-21.659568786621094
1682933653653648600,7.777648681640625,0.6170393228530884,-71.11421966552734,-18.432863235473633
1682933653670522400,7.7945224609375,1.087575912475586,-62.47664260864258,-8.348943710327148
1682933653687400200,7.811400146484375,1.3216127157211304,-48.88806915283203,7.164398193359375
1682933653704279300,7.828279296875,-0.3127174377441406,-35.971031188964844,24.818811416625977
1682933653721159000,7.845158935546875,-1.8716647624969482,-24.10017204284668,40.536617279052734
1682933653738030000,7.862030029296875,-2.453598737716675,-14.107662200927734,50.3794059753418
1682933653754904300,7.878904296875,-1.7420291900634766,-7.268511772155762,53.608238220214844
1682933653771778800,7.89577880859375,-0.837562084197998,-4.099846839904785,48.04541778564453
1682933653788653800,7.91265380859375,2.114346981048584,-7.198504447937012,41.28715133666992
1682933653805527000,7.929527099609375,4.423004150390625,-9.55936050415039,34.530460357666016
1682933653822401300,7.9464013671875,6.622285842895508,-12.695049285888672,31.65382194519043
1682933653839256300,7.96325634765625,7.917088508605957,-14.358112335205078,30.127933502197266
1682933653856151800,7.98015185546875,7.849658012390137,-14.612802505493164,29.180665969848633
1682933653873023200,7.997023193359375,6.992049217224121,-14.676000595092773,27.04604721069336
1682933653889879000,8.013879150390625,5.836031913757324,-14.404759407043457,25.80974006652832
1682933653906761200,8.03076123046875,5.965554237365723,-10.13374137878418,26.468997955322266
1682933653923635700,8.0476357421875,6.859954833984375,-7.295476913452148,24.59625244140625
1682933653940512000,8.064511962890625,7.762472152709961,-10.327104568481445,24.521934509277344
1682933653957394200,8.081394287109376,7.494309425354004,-9.621891975402832,23.264339447021484
1682933653974276000,8.098276123046874,6.657719612121582,-5.33259391784668,22.311290740966797
1682933653991142400,8.115142333984375,7.513981819152832,3.6566836833953857,24.2900333404541
1682933654008017000,8.132016845703125,4.23198938369751,11.605289459228516,25.26007080078125
1682933654024889300,8.148889404296876,1.065070390701294,16.50929069519043,30.828594207763672
1682933654041767000,8.165766845703125,-0.5381178259849548,22.88599967956543,39.27581787109375
1682933654058639400,8.182639404296875,-3.037628650665283,33.21907043457031,41.15605163574219
1682933654075513600,8.199513671875,-0.793159008026123,39.34315490722656,50.462886810302734
1682933654092387300,8.21638720703125,3.1255855560302734,47.183650970458984,58.29879379272461
1682933654109260800,8.2332607421875,4.192430019378662,42.64200973510742,63.185997009277344
1682933654126137000,8.25013720703125,4.813003063201904,40.32408142089844,62.23432159423828
1682933654143010000,8.267010009765626,9.58520221710205,40.51099395751953,55.14407730102539
1682933654159884000,8.283884033203124,11.20168685913086,32.996612548828125,45.074432373046875
1682933654176758500,8.300758544921875,7.899091720581055,20.34678077697754,34.8583984375
1682933654193622000,8.3176220703125,3.323878765106201,12.687003135681152,27.654033660888672
1682933654210506800,8.3345068359375,0.6032288074493408,7.767487049102783,23.7545166015625
1682933654227380700,8.351380615234374,0.4262354373931885,1.744617223739624,24.5411376953125
1682933654244255200,8.368255126953125,2.659602403640747,-6.611111640930176,26.096445083618164
1682933654261119500,8.385119384765625,6.012279033660889,-14.379042625427246,28.08490562438965
1682933654278006300,8.40200634765625,9.148209571838379,-18.314151763916016,29.360137939453125
1682933654294867200,8.4188671875,10.996328353881836,-19.067951202392578,30.400707244873047
1682933654311739000,8.43573876953125,11.035950660705566,-19.716487884521484,31.307706832885742
1682933654328615700,8.45261572265625,9.665328025817871,-18.84353256225586,32.14178466796875
1682933654345491700,8.46949169921875,7.378881454467773,-17.183460235595703,32.34791564941406
1682933654362369800,8.486369873046876,6.196135520935059,-17.154611587524414,33.51036071777344
1682933654379243500,8.503243408203126,5.497183799743652,-18.197555541992188,35.344635009765625
1682933654396111400,8.520111328125,5.484906196594238,-18.308914184570312,36.714866638183594
1682933654412988200,8.53698828125,5.391387939453125,-16.632373809814453,38.306400299072266
1682933654429860400,8.5538603515625,4.465880393981934,-16.890262603759766,38.67388153076172
1682933654446734800,8.57073486328125,3.181229591369629,-20.620208740234375,38.52471160888672
1682933654463609000,8.587609130859375,2.688544988632202,-21.20977210998535,35.297298431396484
1682933654480484900,8.60448486328125,4.053493022918701,-20.547985076904297,29.241046905517578
1682933654497362400,8.621362548828126,3.246760845184326,-23.903413772583008,23.872678756713867
1682933654514231600,8.6382314453125,-2.7177159786224365,-32.091941833496094,14.072172164916992
1682933654531107300,8.655107421875,-7.593695640563965,-43.653709411621094,-1.2632827758789062
1682933654547979500,8.6719794921875,-2.495138168334961,-55.90553665161133,-14.974501609802246
1682933654564855600,8.68885546875,2.2104992866516113,-66.66962432861328,-21.208267211914062
1682933654581729000,8.70572900390625,3.62211275100708,-67.96601104736328,-23.261606216430664
1682933654598604300,8.722604248046874,3.7080421447753906,-61.42382049560547,-17.882366180419922
1682933654615476200,8.739476318359374,2.1164236068725586,-52.73530578613281,-9.26247787475586
1682933654632351200,8.756351318359375,1.3301143646240234,-45.182823181152344,0.4075431823730469
1682933654649226500,8.7732265625,1.1940710544586182,-38.53420639038086,10.302875518798828
1682933654666102300,8.790102294921875,0.5119752883911133,-31.110137939453125,23.05817413330078
1682933654682974700,8.806974609375,-0.4567391872406006,-22.324602127075195,35.20338439941406
1682933654699855000,8.823855224609375,-0.7015578746795654,-14.335821151733398,43.657833099365234
1682933654716734700,8.840734619140624,-0.13715863227844238,-9.781515121459961,45.18629837036133
1682933654733596000,8.857595947265626,1.1782982349395752,-10.316649436950684,41.8824348449707
1682933654750480600,8.874480712890625,3.2859275341033936,-11.920557022094727,40.81626510620117
1682933654767356400,8.8913564453125,5.502831935882568,-11.23624038696289,39.131752014160156
1682933654784227600,8.9082275390625,6.000431537628174,-10.458690643310547,35.13915252685547
1682933654801100800,8.925100830078126,5.54345178604126,-9.257070541381836,31.496309280395508
1682933654817979000,8.941978759765625,5.094694137573242,-8.603619575500488,27.97258758544922
1682933654834851300,8.958851318359375,5.888445854187012,-8.993202209472656,24.403324127197266
1682933654851725600,8.9757255859375,7.163036346435547,-8.980130195617676,22.174373626708984
1682933654868599600,8.992599609375,8.377038955688477,-8.608745574951172,20.598859786987305
1682933654885474300,9.009474365234375,8.711600303649902,-8.248056411743164,18.841800689697266
1682933654902331000,9.026330810546876,7.954312324523926,-7.061655044555664,18.07775115966797
1682933654919221800,9.0432216796875,6.669074535369873,-5.244667053222656,17.746009826660156
1682933654936096800,9.0600966796875,5.41463565826416,-2.963233232498169,18.75271987915039
1682933654952969000,9.076968994140625,5.4114484786987305,2.4904794692993164,19.836822509765625
1682933654969846500,9.093846435546874,3.687868595123291,7.790160179138184,24.643512725830078
1682933654986716700,9.110716552734376,1.8695980310440063,13.60731315612793,33.01960754394531
1682933655003586800,9.1275869140625,1.8823405504226685,21.472604751586914,41.34958267211914
1682933655020454400,9.144454345703124,3.4264369010925293,34.519195556640625,44.078304290771484
1682933655037344300,9.16134423828125,6.7457170486450195,33.85662841796875,57.42357635498047
1682933655054224600,9.178224609375,10.592880249023438,40.968082427978516,61.4221076965332
1682933655071079000,9.195078857421874,19.027015686035156,40.915279388427734,60.28132629394531
1682933655087964400,9.21196435546875,24.00646209716797,44.202064514160156,53.84426498413086
1682933655104838700,9.228838623046874,27.060693740844727,42.38735580444336,43.620628356933594
1682933655121702100,9.2457021484375,21.384389877319336,28.16888427734375,32.17332458496094
1682933655138586600,9.262586669921875,14.771588325500488,15.901569366455078,24.222179412841797
1682933655155460900,9.2794609375,10.912174224853516,10.936620712280273,20.159156799316406
1682933655172325000,9.2963251953125,7.514670372009277,6.869378566741943,20.314191818237305
1682933655189205500,9.31320556640625,4.9517974853515625,-1.1827739477157593,22.12726593017578
1682933655206087700,9.330087646484374,4.350186347961426,-8.970760345458984,22.592670440673828
1682933655222948000,9.346947998046875,5.038416385650635,-14.755985260009766,22.671245574951172
1682933655239832000,9.36383203125,6.579948902130127,-17.12185287475586,21.876523971557617
1682933655256706300,9.380706298828125,7.839101791381836,-18.1025390625,21.78652572631836
1682933655273567500,9.3975673828125,7.589105129241943,-18.0136775970459,22.63800048828125
1682933655290450400,9.414450439453125,6.691505432128906,-18.472881317138672,23.753536224365234
1682933655307326500,9.431326416015626,5.972231388092041,-17.876415252685547,25.17051887512207
1682933655324193000,9.448193115234375,5.554147243499756,-16.918415069580078,27.734848022460938
1682933655341074200,9.46507421875,5.737640380859375,-15.608573913574219,30.21710777282715
1682933655357955000,9.481955078125,6.640102386474609,-14.80180549621582,32.293338775634766
1682933655374825500,9.498825439453125,6.109914779663086,-15.939369201660156,32.901084899902344
1682933655391699700,9.51569970703125,3.9366321563720703,-18.386371612548828,33.40890121459961
1682933655408574000,9.532573974609376,1.9033656120300293,-19.10088348388672,31.979808807373047
1682933655425448200,9.5494482421875,1.6180442571640015,-19.14638900756836,30.251079559326172
1682933655442322200,9.566322265625,2.3265576362609863,-18.960058212280273,27.550090789794922
1682933655459198500,9.583198486328126,4.389210224151611,-16.775466918945312,22.07941436767578
1682933655476068900,9.60006884765625,3.1487183570861816,-20.718151092529297,15.805269241333008
1682933655492945000,9.61694482421875,1.9890978336334229,-30.230060577392578,3.1889162063598633
1682933655509814300,9.633814208984376,0.5493197441101074,-46.30229187011719,-12.741498947143555
1682933655526683000,9.650682861328125,-0.05948817729949951,-72.34996032714844,-25.319252014160156
1682933655543571200,9.6675712890625,5.203960418701172,-76.98188781738281,-32.071170806884766
1682933655560440800,9.68444091796875,12.802112579345703,-66.43004608154297,-24.15819549560547
1682933655577317400,9.7013173828125,10.952573776245117,-54.162864685058594,-11.711686134338379
1682933655594190000,9.718190185546876,5.909217357635498,-44.885643005371094,0.6073875427246094
1682933655611064600,9.735064697265624,-0.4412325620651245,-36.571510314941406,11.664111137390137
1682933655627935700,9.751935791015624,-2.414691686630249,-29.469472885131836,22.922863006591797
1682933655644820500,9.768820556640625,-2.265021800994873,-20.3925838470459,34.16845703125
1682933655661684700,9.785684814453125,-1.2863872051239014,-12.356674194335938,39.21351623535156
1682933655678564000,9.802564208984375,-0.7121036052703857,-10.284543991088867,39.07453918457031
1682933655695433000,9.819432861328124,1.2582740783691406,-11.217794418334961,35.48227310180664
1682933655712312300,9.836312255859376,2.9759626388549805,-11.590057373046875,31.901933670043945
1682933655729186000,9.85318603515625,4.807985782623291,-11.014904022216797,28.185998916625977
1682933655746055700,9.8700556640625,5.248560905456543,-11.226078987121582,26.578521728515625
1682933655762932500,9.886932373046875,6.002283096313477,-10.659736633300781,25.075481414794922
1682933655779806500,9.903806396484375,7.139519214630127,-9.909514427185059,23.300777435302734
1682933655796676900,9.9206767578125,7.479487419128418,-9.728841781616211,21.037267684936523
1682933655813539000,9.9375390625,7.403806209564209,-9.67711067199707,18.83879852294922
1682933655830418700,9.954418701171875,7.458361625671387,-8.822640419006348,17.868547439575195
1682933655847303400,9.971303466796876,7.566729545593262,-7.446751594543457,17.27806854248047
1682933655864177400,9.988177490234374,7.293654918670654,-6.373354434967041,16.670448303222656
1682933655881052000,10.005052001953125,6.4977874755859375,-4.555812835693359,15.638106346130371
1682933655897926100,10.021926025390625,5.89655876159668,-2.555682420730591,14.768905639648438
1682933655914799000,10.038799072265626,4.1738080978393555,1.0414319038391113,15.754020690917969
1682933655931673000,10.055673095703124,0.38210511207580566,4.267242431640625,16.62295913696289
1682933655948551400,10.072551513671876,0.9004338979721069,1.7642817497253418,23.50243377685547
1682933655965422800,10.0894228515625,1.9045300483703613,2.781695604324341,28.703571319580078
1682933655982296800,10.106296875,6.306852340698242,9.673513412475586,36.083885192871094
1682933655999169800,10.123169677734374,4.3321990966796875,16.028823852539062,38.46221923828125
1682933656016046800,10.140046875,-3.0641610622406006,13.733211517333984,38.192543029785156
1682933656032920000,10.156920166015626,-6.905039310455322,9.803861618041992,36.833003997802734
1682933656049794000,10.1737939453125,-6.083339214324951,11.419750213623047,33.867820739746094
1682933656066657500,10.190657470703124,-2.840482711791992,15.433479309082031,29.762676239013672
1682933656083531800,10.20753173828125,-1.651136875152588,16.320283889770508,24.42526626586914
1682933656100416300,10.224416259765626,-3.7456929683685303,15.305070877075195,18.409440994262695
1682933656117280300,10.2412802734375,-6.385515213012695,13.019254684448242,12.62343978881836
1682933656134165000,10.2581650390625,-11.377552032470703,10.725886344909668,7.7371134757995605
1682933656151039000,10.2750390625,-14.339580535888672,9.401782989501953,1.296048641204834
1682933656167913700,10.291913818359374,-12.746722221374512,7.336433410644531,-2.0611133575439453
1682933656184780300,10.3087802734375,-6.987515926361084,5.160480976104736,-2.5977587699890137
1682933656201644500,10.32564453125,-1.087669849395752,3.8863892555236816,-1.7143983840942383
1682933656218536000,10.342535888671875,-0.6261715888977051,3.573408365249634,-1.9456787109375
1682933656235408000,10.359407958984375,-0.13184285163879395,1.7908200025558472,-2.0460729598999023
1682933656252276500,10.3762763671875,-0.1832747459411621,0.20996850728988647,-1.5323901176452637
1682933656269157400,10.393157470703125,-0.5178806781768799,-0.3041815161705017,-1.036158561706543
1682933656286032100,10.4100322265625,-0.10056495666503906,-0.5680097937583923,-0.06752586364746094
1682933656302909000,10.426908935546875,0.8866662979125977,-0.8642059564590454,0.9005947113037109
1682933656319765800,10.443765869140625,1.1726500988006592,-1.8987462520599365,1.3803815841674805
1682933656336655400,10.4606552734375,0.6536087989807129,-3.313669443130493,2.3461084365844727
1682933656353520400,10.477520263671876,0.6730620861053467,-4.012824535369873,3.353879928588867
1682933656370404000,10.494404052734374,0.6164929866790771,-2.874880313873291,3.557000160217285
1682933656387278300,10.5112783203125,1.3707468509674072,-0.8232104182243347,3.2752885818481445
1682933656404143600,10.5281435546875,2.299839735031128,1.14223051071167,3.4927263259887695
1682933656421025300,10.545025390625,3.0098068714141846,2.127687931060791,2.907740592956543
1682933656437885000,10.561885009765625,3.465782880783081,0.9463658332824707,2.467778205871582
1682933656454774800,10.57877490234375,3.468034267425537,-1.3975976705551147,2.625168800354004
1682933656471646500,10.595646484375,2.5015878677368164,-2.002004384994507,2.2885990142822266
1682933656488523800,10.612523681640624,1.0867047309875488,-2.0624899864196777,2.139824390411377
1682933656505397500,10.6293974609375,-1.0159659385681152,-1.9282904863357544,2.679675579071045
1682933656522270000,10.64627001953125,-1.0064373016357422,-1.2129549980163574,2.899984359741211
1682933656539145500,10.6631455078125,-3.613926887512207,-1.296337604522705,3.8903231620788574
1682933656556021800,10.680021728515625,-4.462798118591309,-1.0133516788482666,3.5462818145751953
1682933656572896000,10.69689599609375,-4.798609256744385,-0.47611260414123535,3.8059704303741455
1682933656589766400,10.713766357421875,-5.098717212677002,0.048426538705825806,3.214909315109253
1682933656606645500,10.7306455078125,-5.041509628295898,0.45189711451530457,2.942077159881592
1682933656623506700,10.747506591796874,-4.749001979827881,1.7557156085968018,1.8222479820251465
1682933656640391700,10.7643916015625,-4.622339725494385,2.256267547607422,1.660809874534607
1682933656657265700,10.781265625,-6.006569862365723,1.6080985069274902,2.2221436500549316
1682933656674129400,10.79812939453125,-4.877668857574463,1.5500401258468628,2.2632133960723877
1682933656691014100,10.81501416015625,-3.610409736633301,1.8523467779159546,1.6622812747955322
1682933656707888400,10.831888427734375,-3.77809476852417,2.6316123008728027,1.9420392513275146
1682933656724763000,10.848762939453126,-3.721573829650879,2.9669270515441895,1.953444480895996
1682933656741637000,10.86563720703125,-3.351999282836914,3.542287826538086,2.1364619731903076
1682933656758511000,10.882510986328125,-2.5825204849243164,3.938126564025879,1.7214372158050537
1682933656775385300,10.89938525390625,-2.470614433288574,4.023580551147461,1.748647689819336
1682933656792260600,10.916260498046874,-2.3765921592712402,3.669735908508301,1.758557915687561
1682933656809135400,10.93313525390625,-1.4509754180908203,3.3576040267944336,1.7321901321411133
1682933656826006500,10.950006591796875,-0.7819690704345703,3.4963064193725586,1.4200645685195923
1682933656842882600,10.966882568359376,-0.7962541580200195,4.0606465339660645,0.9462173581123352
1682933656859756300,10.98375634765625,-1.353963851928711,3.819573163986206,1.1062878370285034
1682933656876622300,11.000622314453125,-1.6241350173950195,3.481283664703369,1.2076008319854736
1682933656893495000,11.0174951171875,-0.5501127243041992,3.221554756164551,0.8734049797058105
1682933656910376400,11.03437646484375,0.17927169799804688,3.054957389831543,0.9920444488525391
1682933656927243300,11.0512431640625,0.7427835464477539,3.536741018295288,1.1427944898605347
1682933656944130600,11.068130615234375,0.9537591934204102,3.273776054382324,0.7630571722984314
1682933656961002000,11.085001953125,0.2584247589111328,3.104600429534912,1.0807952880859375
1682933656977876200,11.101876220703126,-0.2735309600830078,2.948230504989624,1.6472880840301514
1682933656994750200,11.118750244140625,0.10088157653808594,2.4791526794433594,1.8398449420928955
1682933657011625000,11.135625,1.3546266555786133,2.342766761779785,1.0993776321411133
1682933657028498700,11.152498779296875,1.3123979568481445,1.9172875881195068,1.4143403768539429
1682933657045373000,11.169373046875,1.3179492950439453,0.9263034462928772,1.8210389614105225
1682933657062247700,11.18624755859375,0.2440032958984375,0.1888267993927002,1.9301531314849854
1682933657079111000,11.20311083984375,-0.6860017776489258,-0.3197200894355774,2.5271785259246826
1682933657095995100,11.2199951171875,-0.44789981842041016,-0.7242423892021179,2.4820492267608643
1682933657112861000,11.23686083984375,0.6599740982055664,-0.8295181393623352,2.1616313457489014
1682933657129748700,11.253748779296876,1.199838638305664,-0.9021571278572083,1.8159193992614746
1682933657146618400,11.270618408203125,0.7650814056396484,-1.0729639530181885,1.746596336364746
1682933657163480300,11.287480224609375,0.2208547592163086,-0.899161159992218,1.9587888717651367
1682933657180369000,11.304368896484375,0.18642520904541016,-0.2121117115020752,2.059583902359009
1682933657197238500,11.321238525390624,0.2800436019897461,0.07316398620605469,1.8396662473678589
1682933657214118100,11.3381181640625,-0.20583343505859375,-0.09162476658821106,1.6791198253631592
1682933657230989600,11.354989501953124,-0.5148096084594727,0.1351625621318817,1.4860879182815552
1682933657247864300,11.3718642578125,-0.6178121566772461,0.6334910988807678,1.2928295135498047
1682933657264738300,11.38873828125,-0.9345541000366211,0.9250257015228271,0.7467825412750244
1682933657281612000,11.405612060546876,-1.2920122146606445,1.0217801332473755,0.6349236965179443
1682933657298486800,11.42248681640625,-1.487131118774414,0.8152987957000732,0.8826820254325867
1682933657315360800,11.43936083984375,-1.8489298820495605,0.3281319737434387,1.1484520435333252
1682933657332235300,11.4562353515625,-1.4986562728881836,0.3729698359966278,0.987358808517456
1682933657349109500,11.473109619140626,-0.529078483581543,0.7573990821838379,0.7090156078338623
1682933657365981700,11.489981689453124,0.7766103744506836,0.8058727383613586,1.1298314332962036
1682933657382857500,11.506857421875,1.4406185150146484,0.6379389762878418,1.3921483755111694
1682933657399732000,11.52373193359375,0.9530191421508789,1.1084952354431152,1.1156617403030396
1682933657416606200,11.540606201171874,0.424468994140625,1.3949388265609741,0.9699304699897766
1682933657433467600,11.557467529296876,-0.001674652099609375,1.6467540264129639,0.9060027599334717
1682933657450352400,11.574352294921875,-0.083892822265625,1.896475076675415,0.9148930311203003
1682933657467231700,11.591231689453124,0.09365558624267578,1.8352911472320557,0.9471223950386047
1682933657484092700,11.6080927734375,0.28980159759521484,1.3089951276779175,1.264920949935913
1682933657500977400,11.624977294921875,-0.22589683532714844,1.0758368968963623,1.3115136623382568
1682933657517848800,11.641848876953125,-0.21059608459472656,1.2623140811920166,1.2845737934112549
1682933657534713000,11.658713134765625,0.15257644653320312,1.4073662757873535,1.464530348777771
1682933657551600600,11.6756005859375,-0.07825660705566406,1.3702774047851562,1.1714826822280884
1682933657568474400,11.692474365234375,-0.5318965911865234,1.3777596950531006,0.9432952404022217
1682933657585348600,11.7093486328125,-0.6096773147583008,1.4726159572601318,0.8017387986183167
1682933657602222800,11.726222900390624,-0.6413764953613281,0.9669493436813354,0.9308986663818359
1682933657619096800,11.743096923828125,-0.6628618240356445,0.2927815020084381,0.6479060649871826
1682933657635971300,11.759971435546875,-0.4578819274902344,0.11940644681453705,0.7404420375823975
1682933657652845800,11.776845703125,-0.048407554626464844,0.37440526485443115,1.2080154418945312
1682933657669720000,11.793719970703124,0.6560697555541992,0.6977083683013916,1.2672442197799683
1682933657686594000,11.810593994140625,0.5736274719238281,1.0566588640213013,1.1569738388061523
1682933657703457800,11.827457763671875,0.3039093017578125,0.5838749408721924,1.0454782247543335
1682933657720356400,11.8443564453125,-0.014315605163574219,0.16334599256515503,1.1819794178009033
1682933657737204200,11.861204345703126,-0.8823518753051758,0.12884174287319183,0.9395551681518555
1682933657754080500,11.87808056640625,-1.661874771118164,0.6113404631614685,0.48249897360801697
1682933657770963000,11.894962890625,-1.8867673873901367,0.8719476461410522,0.2774202823638916
1682933657787829500,11.91182958984375,-1.1404447555541992,0.8069348931312561,0.25124382972717285
1682933657804713200,11.928713134765625,1.6574506759643555,1.7559287548065186,1.9995477199554443
1682933657821588700,11.945588623046875,2.1062536239624023,2.676353931427002,2.6341631412506104
1682933657838454800,11.962454833984374,0.9752292633056641,2.245347499847412,1.809901475906372
1682933657855326700,11.97932666015625,0.06034564971923828,1.5235604047775269,1.6355407238006592
1682933657872200200,11.9962001953125,-1.296661376953125,0.8107962608337402,1.1867318153381348
1682933657889075000,12.013074951171875,-1.9422340393066406,-0.9422217011451721,0.6661084294319153
1682933657905950200,12.0299501953125,-0.6450815200805664,0.3917304277420044,1.0477337837219238
1682933657922823200,12.0468232421875,-0.8350210189819336,0.23347659409046173,0.7623492479324341
1682933657939698400,12.063698486328125,0.060016632080078125,0.5446392893791199,0.6772783994674683
1682933657956571600,12.080571533203125,-0.22078895568847656,0.5133690237998962,0.905938446521759
1682933657973447000,12.097447021484374,-0.008790016174316406,1.2029850482940674,1.210548758506775
1682933657990319600,12.114319580078124,0.30422306060791016,1.649815559387207,1.6216068267822266
1682933658007196400,12.131196533203125,0.3701610565185547,1.995924472808838,1.6406359672546387
1682933658024067300,12.1480673828125,0.3469114303588867,1.9800041913986206,1.4110217094421387
1682933658040944400,12.1649443359375,0.2806081771850586,1.2175204753875732,1.1771680116653442
1682933658057816000,12.181816162109374,0.14265155792236328,0.19610032439231873,1.2882061004638672
1682933658074691600,12.198691650390625,0.014949798583984375,0.1665721982717514,1.7107713222503662
1682933658091568000,12.215568115234374,0.2353496551513672,0.9111521244049072,1.4542477130889893
1682933658108440300,12.2324404296875,-0.16095829010009766,1.202192783355713,0.7078756093978882
1682933658125315300,12.2493154296875,-0.022592544555664062,1.167877197265625,0.39604827761650085
1682933658142189000,12.26618896484375,0.1049032211303711,1.087015151977539,0.8153802156448364
1682933658159064000,12.28306396484375,-0.10516738891601562,1.3894009590148926,1.1515947580337524
1682933658175936800,12.299936767578124,-0.1111593246459961,1.6948368549346924,1.2126177549362183
1682933658192813000,12.31681298828125,0.24847793579101562,1.5162469148635864,1.193026065826416
1682933658209695500,12.333695556640626,0.7220048904418945,1.1051218509674072,1.2031892538070679
1682933658226562300,12.350562255859375,0.8089065551757812,1.0100091695785522,1.26835036277771
1682933658243457500,12.36745751953125,0.2891063690185547,1.2204868793487549,1.1228313446044922
