time,seconds_elapsed,z,y,x
1683885692643028200,0.1770283203125,-2.262209892272949,0.8061620593070984,-0.27875328063964844
1683885692659893500,0.1938935546875,-0.9179525375366211,0.7980623245239258,-0.2673776149749756
1683885692676774100,0.210774169921875,0.14641284942626953,2.3628780841827393,0.1741948127746582
1683885692693654300,0.227654296875,-0.7011642456054688,4.87179708480835,1.8176236152648926
1683885692710510800,0.2445107421875,-2.7310519218444824,5.40708065032959,0.8669087886810303
1683885692727390000,0.261389892578125,-2.588329315185547,5.020437240600586,0.9685976505279541
1683885692744263000,0.278262939453125,-0.8977088928222656,4.194711208343506,1.220491647720337
1683885692761133800,0.2951337890625,0.5740137100219727,4.251270294189453,0.604241132736206
1683885692777996800,0.311996826171875,-0.11603450775146484,1.5764368772506714,0.2993144989013672
1683885692794875600,0.328875732421875,-0.47136402130126953,1.9447238445281982,0.045150041580200195
1683885692811751400,0.34575146484375,-0.28761768341064453,3.9284281730651855,0.6651256084442139
1683885692828620000,0.3626201171875,-0.2662172317504883,3.5859274864196777,0.20234227180480957
1683885692845485600,0.379485595703125,-0.023728370666503906,3.6503779888153076,0.1644437313079834
1683885692862364400,0.396364501953125,-0.8271656036376953,4.0404181480407715,0.18109989166259766
1683885692879241500,0.413241455078125,-1.0433883666992188,3.8444583415985107,-0.1407318115234375
1683885692896110300,0.4301103515625,-1.1615443229675293,3.777494192123413,-0.29288673400878906
1683885692912983300,0.4469833984375,-1.5015559196472168,4.258382797241211,-0.15350008010864258
1683885692929854500,0.4638544921875,-2.4354805946350098,4.361751556396484,-0.28586530685424805
1683885692946727400,0.4807275390625,-2.3572158813476562,5.081595420837402,-0.8352470397949219
1683885692963598800,0.497598876953125,-2.278599739074707,5.246763229370117,-0.9818658828735352
1683885692980471800,0.514471923828125,-0.7531390190124512,4.486656188964844,-0.4388875961303711
1683885692997342700,0.5313427734375,1.133448600769043,3.9552364349365234,-0.4994058609008789
1683885693014216000,0.5482158203125,1.7055225372314453,3.554119825363159,-0.3946843147277832
1683885693031086600,0.565086669921875,1.7212543487548828,3.953105926513672,0.20442962646484375
1683885693047959800,0.581959716796875,1.0811433792114258,4.231297016143799,1.0363686084747314
1683885693064829200,0.5988291015625,-1.4308266639709473,4.621178150177002,0.7321898937225342
1683885693081706500,0.61570654296875,-1.5734400749206543,4.4845123291015625,-0.6566271781921387
1683885693098574800,0.632574951171875,0.5194988250732422,4.020472526550293,-1.3110814094543457
1683885693115448000,0.649447998046875,1.1638469696044922,3.6319661140441895,-0.7026793956756592
1683885693132319200,0.6663193359375,0.6170444488525391,3.82411789894104,-0.6578085422515869
1683885693149177900,0.683177734375,0.2836580276489258,3.899505376815796,-0.6705107688903809
1683885693166067200,0.700067138671875,0.778843879699707,3.811612367630005,-0.6233444213867188
1683885693182936300,0.716936279296875,0.64727783203125,3.6028833389282227,-0.06570267677307129
1683885693199797000,0.733796875,-0.9735937118530273,3.800799608230591,0.31062889099121094
1683885693216680700,0.7506806640625,-0.9260416030883789,3.6407485008239746,0.26715517044067383
1683885693233551600,0.767551513671875,-0.5583829879760742,3.4318161010742188,0.15146851539611816
1683885693250424800,0.7844248046875,-0.6347837448120117,2.987342596054077,0.07904338836669922
1683885693267295500,0.80129541015625,-1.0026321411132812,3.4258244037628174,0.8165128231048584
1683885693284168400,0.81816845703125,-0.6090974807739258,2.5001273155212402,0.833207368850708
1683885693301039600,0.83503955078125,0.9276266098022461,2.6826462745666504,0.7201342582702637
1683885693317911300,0.851911376953125,0.5295495986938477,2.856797695159912,0.9254534244537354
1683885693334783200,0.868783203125,-0.5012855529785156,3.3006222248077393,0.7662291526794434
1683885693351648800,0.885648681640625,-0.8076319694519043,2.881582736968994,-0.3736124038696289
1683885693368526000,0.902526123046875,0.23954486846923828,2.498260021209717,-0.15390396118164062
1683885693385396500,0.919396484375,0.3023405075073242,2.2611846923828125,0.4929478168487549
1683885693402281000,0.936281005859375,-0.04860877990722656,2.3458855152130127,0.870438814163208
1683885693419131000,0.953130859375,-0.3111991882324219,2.6286461353302,0.569739580154419
1683885693436017200,0.97001708984375,-0.3367033004760742,2.925564765930176,0.40283727645874023
1683885693452892200,0.98689208984375,-1.3814640045166016,3.2755701541900635,0.15942668914794922
1683885693469759700,1.003759765625,-1.8473000526428223,3.6337132453918457,0.0018763542175292969
1683885693486634500,1.020634521484375,-0.2974739074707031,2.4158878326416016,-0.6984295845031738
1683885693503504400,1.03750439453125,0.7372560501098633,2.0506999492645264,-0.8257942199707031
1683885693520377300,1.05437744140625,0.7328739166259766,2.160651683807373,-0.4460749626159668
1683885693537249000,1.0712490234375,0.8887834548950195,2.344616651535034,-0.08617138862609863
1683885693554121700,1.088121826171875,0.4667043685913086,2.194610834121704,0.12821173667907715
1683885693570993000,1.104992919921875,-1.3666496276855469,2.632474899291992,0.034158945083618164
1683885693587865900,1.121865966796875,-0.8966054916381836,3.1696767807006836,0.0697336196899414
1683885693604734700,1.138734619140625,-1.0700387954711914,2.897808790206909,-0.2901008129119873
1683885693621612800,1.15561279296875,-0.767695426940918,2.198620080947876,-0.5070444345474243
1683885693638481000,1.17248095703125,-0.4787750244140625,3.028196096420288,-0.4929255247116089
1683885693655354400,1.189354248046875,-0.23567485809326172,2.964588165283203,-0.3761880397796631
1683885693672225000,1.20622509765625,0.2864570617675781,2.58064603805542,-0.18542784452438354
1683885693689087700,1.223087646484375,0.6059713363647461,3.603560209274292,0.011187493801116943
1683885693705977600,1.2399775390625,-0.5210037231445312,3.9394137859344482,0.343769371509552
1683885693722844200,1.25684423828125,-1.070037841796875,3.434616804122925,-0.059208035469055176
1683885693739703300,1.273703369140625,-1.1130924224853516,2.9870083332061768,-0.49739474058151245
1683885693756588800,1.2905888671875,-0.8662090301513672,2.819304943084717,-0.31754279136657715
1683885693773447200,1.307447265625,-0.4532470703125,3.0270915031433105,-0.10967111587524414
1683885693790332700,1.324332763671875,-0.1145477294921875,2.953315019607544,0.04214370250701904
1683885693807202600,1.34120263671875,-0.24686336517333984,3.0330660343170166,0.08561468124389648
1683885693824075300,1.3580751953125,-0.5240163803100586,3.378373146057129,-0.10930454730987549
1683885693840946000,1.37494580078125,-0.3206615447998047,3.0485196113586426,-0.6721802949905396
1683885693857819100,1.391819091796875,0.046649932861328125,2.7289304733276367,-1.0404961109161377
1683885693874688000,1.40868798828125,-0.35996341705322266,3.020385503768921,-1.0149800777435303
1683885693891565600,1.425565673828125,-0.7937994003295898,3.247922420501709,-0.9039428234100342
1683885693908434700,1.4424345703125,-0.2744283676147461,3.2046380043029785,-0.9775125980377197
1683885693925307600,1.4593076171875,-0.1688995361328125,2.987492322921753,-1.4350924491882324
1683885693942178800,1.4761787109375,-1.0719795227050781,3.085460662841797,-1.4506216049194336
1683885693959041300,1.493041259765625,-1.5596776008605957,3.40706729888916,-1.0492393970489502
1683885693975922700,1.509922607421875,-1.7843818664550781,2.941708564758301,-0.6220078468322754
1683885693992785200,1.52678515625,-1.479600429534912,2.5365219116210938,-0.7584371566772461
1683885694009667000,1.5436669921875,-1.013840675354004,2.3565268516540527,-0.31552863121032715
1683885694026540000,1.5605400390625,-0.5044374465942383,2.3169095516204834,0.44642090797424316
1683885694043412200,1.577412109375,-1.2002577781677246,2.556119203567505,0.7570602893829346
1683885694060273200,1.594273193359375,-1.651125431060791,2.376884937286377,0.3465769290924072
1683885694077144300,1.611144287109375,-1.724353313446045,2.0644242763519287,-0.023052692413330078
1683885694094028800,1.62802880859375,-1.7179594039916992,2.0153698921203613,0.262451171875
1683885694110886400,1.644886474609375,-1.5092711448669434,2.2826926708221436,0.7482650279998779
1683885694127775200,1.661775146484375,-0.46849727630615234,2.277217388153076,1.574723243713379
1683885694144643800,1.678643798828125,0.30190372467041016,2.1676177978515625,1.768911600112915
1683885694161517000,1.69551708984375,-0.8041353225708008,2.7490310668945312,1.4136290550231934
1683885694178388000,1.712387939453125,-2.100881576538086,3.478419065475464,1.0676276683807373
1683885694195261000,1.729260986328125,-2.712625026702881,3.6758270263671875,0.528872013092041
1683885694212132000,1.746132080078125,-2.2623867988586426,3.6279659271240234,0.6635274887084961
1683885694228996400,1.762996337890625,-0.6902642250061035,3.3852972984313965,0.5516505241394043
1683885694245876500,1.77987646484375,0.22379779815673828,3.3943538665771484,1.4159302711486816
1683885694262739200,1.7967392578125,0.7098665237426758,3.451829433441162,1.423919916152954
1683885694279616300,1.8136162109375,0.08889293670654297,3.5823793411254883,1.3423876762390137
1683885694296493800,1.830493896484375,-0.8212690353393555,3.792137622833252,1.0885066986083984
1683885694313357000,1.847357177734375,-1.523512363433838,4.2593793869018555,1.2646715641021729
1683885694330237700,1.86423779296875,-2.012941360473633,4.448744773864746,1.223670482635498
1683885694347095300,1.88109521484375,-1.776360034942627,4.4716315269470215,1.402388334274292
1683885694363980800,1.897980712890625,-1.3012347221374512,4.3715362548828125,2.0198678970336914
1683885694380839700,1.914839599609375,-1.079390525817871,3.859308958053589,1.928807020187378
1683885694397729000,1.93172900390625,-0.41136741638183594,2.4102725982666016,0.7108817100524902
1683885694414597400,1.948597412109375,-1.007676124572754,2.6802332401275635,0.41222167015075684
1683885694431470300,1.96547021484375,-1.9683337211608887,2.8934593200683594,0.6343393325805664
1683885694448341500,1.982341552734375,-2.800306797027588,3.516218662261963,1.242502212524414
1683885694465210600,1.999210693359375,-2.687466621398926,3.466759443283081,1.233769416809082
1683885694482088700,2.016088623046875,-1.6751322746276855,3.3770689964294434,0.7470986843109131
1683885694498972700,2.03297265625,-1.5297274589538574,3.184459686279297,0.3141598701477051
1683885694515830000,2.049830078125,-1.307788372039795,2.647684097290039,0.4492909908294678
1683885694532703200,2.066703125,-0.9416413307189941,2.0384490489959717,1.2498416900634766
1683885694549574400,2.083574462890625,-0.999443531036377,0.7188791036605835,2.17743182182312
1683885694566447400,2.100447265625,-1.7167611122131348,-0.7035006284713745,2.818929672241211
1683885694583318500,2.117318603515625,-1.3473610877990723,-1.7961552143096924,3.469290018081665
1683885694600194800,2.13419482421875,-4.2337846755981445,-3.0825109481811523,2.9683592319488525
1683885694617059600,2.1510595703125,-3.1642656326293945,-1.7655630111694336,2.705301284790039
1683885694633936100,2.16793603515625,-3.925081729888916,-2.7680869102478027,2.6474833488464355
1683885694650807300,2.184807373046875,-2.8034772872924805,-4.117508888244629,3.01779842376709
1683885694667669800,2.201669677734375,-1.4037466049194336,-3.6852924823760986,2.525209426879883
1683885694684548600,2.218548583984375,-2.0062921047210693,-3.0592217445373535,0.785001277923584
1683885694701426400,2.235426513671875,-2.3237428665161133,-4.033151149749756,-1.8996334075927734
1683885694718296000,2.252296142578125,-1.8111839294433594,-6.175847053527832,-3.559640884399414
1683885694735168800,2.269168701171875,-1.4920381307601929,-6.031569957733154,-3.7051901817321777
1683885694752037000,2.286037109375,-2.8024678230285645,-3.842876434326172,-3.882558822631836
1683885694768903000,2.30290283203125,-3.2220494747161865,-2.572294235229492,-5.955414295196533
1683885694785786400,2.319786376953125,-3.1864211559295654,-3.175837993621826,-7.958902359008789
1683885694802656300,2.33665625,-3.653481960296631,-2.235076904296875,-8.82607650756836
1683885694819528200,2.353528076171875,-6.234964847564697,-1.8642630577087402,-9.826028823852539
1683885694836401200,2.370401123046875,-4.936853408813477,0.17190217971801758,-11.985578536987305
1683885694853272600,2.3872724609375,-4.448535442352295,0.18947839736938477,-13.359378814697266
1683885694870145800,2.404145751953125,-6.966323375701904,1.8966474533081055,-13.044981956481934
1683885694887017000,2.421016845703125,-7.8916778564453125,3.7400054931640625,-12.087869644165039
1683885694903888100,2.43788818359375,-5.897554874420166,3.554347515106201,-11.650516510009766
1683885694920762600,2.4547626953125,-3.7358641624450684,2.9885306358337402,-9.468481063842773
1683885694937634300,2.47163427734375,-2.9184470176696777,3.986346960067749,-7.305911064147949
1683885694954507500,2.488507568359375,-5.198770523071289,5.187891483306885,-4.095973014831543
1683885694971376000,2.505376220703125,-4.85909366607666,6.21109676361084,-1.0884547233581543
1683885694988247000,2.5222470703125,-4.724933624267578,6.249415397644043,1.222188949584961
1683885695005125400,2.53912548828125,-5.133098125457764,5.405227184295654,2.800715208053589
1683885695021993700,2.55599365234375,-3.758021116256714,3.963460922241211,3.0669283866882324
1683885695038869200,2.572869140625,-2.179438591003418,3.0233380794525146,2.9080448150634766
1683885695055736000,2.589736083984375,-2.1442227363586426,1.7426395416259766,2.7381653785705566
1683885695072619800,2.606619873046875,-3.0675110816955566,0.9237499237060547,1.6613197326660156
1683885695089481700,2.623481689453125,-4.022708892822266,1.9864916801452637,0.45821046829223633
1683885695106356000,2.64035595703125,-0.29780125617980957,-1.817270278930664,-0.5226578712463379
1683885695123227000,2.657226806640625,-0.45795440673828125,-2.97300386428833,-0.4369010925292969
1683885695140100000,2.67410009765625,-1.7758947610855103,-2.2217869758605957,-0.4500880241394043
1683885695156970500,2.690970458984375,-5.32145881652832,2.495673656463623,-1.6682953834533691
1683885695173843700,2.70784375,-6.605569839477539,1.884063482284546,-3.854504108428955
1683885695190716400,2.72471630859375,-0.1470167636871338,9.749155044555664,-8.518608093261719
1683885695207590400,2.74159033203125,-2.0253193378448486,-5.396306037902832,-8.127779006958008
1683885695224459500,2.75845947265625,0.43253207206726074,-0.9695878028869629,-6.485299110412598
1683885695241332700,2.775332763671875,1.1971065998077393,0.955723762512207,-2.632145881652832
1683885695258200600,2.79220068359375,3.880831241607666,-2.2556090354919434,-0.35027313232421875
1683885695275076900,2.809076904296875,1.5230343341827393,-1.6225275993347168,2.439668655395508
1683885695291948300,2.8259482421875,-4.2049994468688965,-0.6472940444946289,5.863173484802246
1683885695308812500,2.8428125,-8.349474906921387,-0.30003809928894043,7.337812423706055
1683885695325692700,2.859692626953125,-8.521116256713867,-0.5979752540588379,5.691489219665527
1683885695342566000,2.87656591796875,-8.388927459716797,-0.3778691291809082,5.528824806213379
1683885695359428600,2.8934287109375,-10.759644508361816,1.3610310554504395,5.470418930053711
1683885695376309800,2.910309814453125,-6.688197135925293,-0.9389877319335938,4.3689727783203125
1683885695393181000,2.927180908203125,4.794835090637207,-2.2266440391540527,4.311578750610352
1683885695410053000,2.94405322265625,0.19482207298278809,-3.782674789428711,1.4451003074645996
1683885695426925300,2.96092529296875,4.740345001220703,-7.537076950073242,0.20918655395507812
1683885695443803000,2.977802978515625,3.516697883605957,-6.3970417976379395,-2.562572479248047
1683885695460669700,2.994669677734375,6.114828586578369,-3.181105613708496,-5.050173282623291
1683885695477543200,3.011543212890625,2.8365607261657715,0.7731060981750488,-4.582612037658691
1683885695494413800,3.028413818359375,0.36522722244262695,3.294735908508301,-3.7407994270324707
1683885695511287000,3.045287109375,-0.30019640922546387,4.03782844543457,-2.524855613708496
1683885695528158500,3.062158447265625,-4.1760382652282715,3.689706325531006,-2.0013184547424316
1683885695545029000,3.079029052734375,-9.836810111999512,2.3395304679870605,-1.7538952827453613
1683885695561905200,3.0959052734375,-14.094625473022461,-0.29915714263916016,-0.11939811706542969
1683885695578765300,3.112765380859375,-7.9465789794921875,1.8824095726013184,-0.18431830406188965
1683885695595647200,3.129647216796875,-2.4317572116851807,4.86079740524292,-0.4297177791595459
1683885695612520000,3.14652001953125,-1.9393270015716553,5.27813196182251,0.6324729919433594
1683885695629380900,3.163380859375,-2.8920254707336426,4.755239009857178,0.8943829536437988
1683885695646256400,3.18025634765625,-3.59536075592041,4.731462001800537,0.6950206756591797
1683885695663148500,3.1971484375,-3.6498301029205322,4.734421730041504,0.5607514381408691
1683885695680009000,3.214009033203125,-3.5548839569091797,5.469472885131836,0.9530594348907471
1683885695696880000,3.230880126953125,-2.9817516803741455,5.606100559234619,1.8316996097564697
1683885695713753000,3.247753173828125,-2.190586566925049,0.7010841369628906,3.23893404006958
1683885695730621700,3.26462158203125,-2.120622396469116,-3.5561161041259766,3.5873730182647705
1683885695747500000,3.2815,-1.6419568061828613,-5.515429496765137,3.047823905944824
1683885695764368600,3.29836865234375,0.4812281131744385,-8.194196701049805,3.791473627090454
1683885695781241900,3.315241943359375,1.7030303478240967,-10.640405654907227,4.182341575622559
1683885695798113000,3.332113037109375,1.971959114074707,-12.929296493530273,4.724765300750732
1683885695814986200,3.348986328125,2.872877359390259,-10.65842342376709,4.98383903503418
1683885695831857700,3.365857666015625,0.16150641441345215,-3.8512039184570312,1.2333142757415771
1683885695848734200,3.382734130859375,-0.9923192262649536,-0.5809459686279297,-0.7103421688079834
1683885695865601500,3.3996015625,-1.0830777883529663,0.5273332595825195,-1.3255140781402588
1683885695882475000,3.41647509765625,-1.3537521362304688,0.6642370223999023,-1.200623631477356
1683885695899346200,3.43334619140625,-2.1841487884521484,-0.015730857849121094,-0.9332680702209473
1683885695916219100,3.45021923828125,-14.027349472045898,-2.570466995239258,-1.0928704738616943
1683885695933088800,3.4670888671875,-6.753325462341309,-2.5250730514526367,-1.239800214767456
1683885695949965600,3.483965576171875,-3.133552074432373,-0.39528322219848633,-0.8708746433258057
1683885695966834700,3.500834716796875,-2.9818406105041504,-0.3968925476074219,0.1365833282470703
1683885695983705300,3.517705322265625,-4.012514591217041,-0.5744843482971191,-0.4480907917022705
1683885696000592600,3.534592529296875,-4.338572025299072,-0.39305830001831055,-1.3358651399612427
1683885696017435600,3.551435546875,-4.002652645111084,-1.09254789352417,-1.8754949569702148
1683885696034324000,3.568323974609375,-3.051797866821289,-2.058925151824951,-1.5901298522949219
1683885696051197000,3.585197021484375,-3.6335127353668213,-3.1632165908813477,-0.4868810176849365
1683885696068068000,3.602068115234375,-3.7385849952697754,-3.4193058013916016,0.22067523002624512
1683885696084938500,3.6189384765625,-2.001232624053955,-1.9256935119628906,-0.42069458961486816
1683885696101812200,3.635812255859375,-1.349092960357666,-0.7218189239501953,-1.1922907829284668
1683885696118688500,3.6526884765625,-1.5254106521606445,-0.4527864456176758,-1.5595602989196777
1683885696135556600,3.669556640625,-1.738847017288208,-0.8719286918640137,-1.6206459999084473
1683885696152429800,3.686429931640625,-2.209476947784424,-1.373143196105957,-1.4863626956939697
1683885696169290500,3.70329052734375,-2.6061620712280273,-1.806520938873291,-1.2172887325286865
1683885696186174500,3.720174560546875,-2.8843681812286377,-1.854482650756836,-0.894261360168457
1683885696203045400,3.73704541015625,-3.005800724029541,-1.5136990547180176,-0.6680212020874023
1683885696219918600,3.753918701171875,-3.19053316116333,-1.1704277992248535,-0.5688595771789551
1683885696236790300,3.770790283203125,-3.937142848968506,-1.1126575469970703,-0.3987112045288086
1683885696253663200,3.787663330078125,-4.852231502532959,-1.2595067024230957,-0.24706292152404785
1683885696270534400,3.804534423828125,-3.8670458793640137,-1.2577753067016602,-0.48845505714416504
1683885696287407400,3.821407470703125,-3.0025315284729004,-1.2398643493652344,-0.7607989311218262
1683885696304278800,3.83827880859375,-2.7368385791778564,-1.279642105102539,-0.9645309448242188
1683885696321151700,3.85515185546875,-2.938352108001709,-1.5758280754089355,-1.1373436450958252
1683885696338023000,3.87202294921875,-3.9655542373657227,-2.014087200164795,-1.184281349182129
1683885696354893600,3.8888935546875,-4.074850082397461,-2.2104907035827637,-1.270636796951294
1683885696371770000,3.90577001953125,-3.1614840030670166,-2.169279098510742,-1.6029646396636963
1683885696388641000,3.92264111328125,-2.7571401596069336,-2.349329948425293,-1.736405849456787
1683885696405512000,3.939511962890625,-2.8312482833862305,-2.4080018997192383,-1.9429361820220947
1683885696422385200,3.95638525390625,-3.175262689590454,-2.440915584564209,-2.227539539337158
1683885696439255600,3.973255615234375,-3.907705307006836,-2.6442933082580566,-2.4111108779907227
1683885696456141000,3.99014111328125,-4.2560224533081055,-2.8345279693603516,-2.810655355453491
1683885696473003500,4.00700341796875,-3.327929973602295,-3.422499656677246,-3.079892635345459
1683885696489874000,4.0238740234375,-2.768009662628174,-4.750940322875977,-2.985114097595215
1683885696506744800,4.040744873046875,-5.374241352081299,-6.375692844390869,-2.6128602027893066
1683885696523618600,4.05761865234375,-6.71738338470459,-7.231195449829102,-2.332124710083008
1683885696540489500,4.074489501953125,-7.358922004699707,-6.9926438331604,-2.41933012008667
1683885696557362700,4.09136279296875,-11.491004943847656,-5.569296836853027,-2.641343593597412
1683885696574233900,4.10823388671875,-12.920387268066406,-4.549745082855225,-2.5459415912628174
1683885696591107000,4.125107177734375,0.13023626804351807,-4.306848049163818,-2.8790440559387207
1683885696607978500,4.141978515625,5.554617881774902,-3.229450225830078,-2.854564666748047
1683885696624849700,4.158849609375,2.673738956451416,-0.29467248916625977,-2.4460630416870117
1683885696641725700,4.1757255859375,2.785766363143921,0.08841753005981445,-1.7641792297363281
1683885696658595800,4.192595947265625,2.8693816661834717,-0.5489187240600586,-0.785545825958252
1683885696675468800,4.20946875,3.8542380332946777,-1.6146421432495117,-0.06476497650146484
1683885696692338400,4.22633837890625,4.2604899406433105,-2.3078575134277344,0.23334455490112305
1683885696709201000,4.243200927734375,5.14008092880249,-2.026129722595215,-0.21381092071533203
1683885696726084900,4.2600849609375,5.907538890838623,-0.8195896148681641,-1.6321263313293457
1683885696742955800,4.276955810546875,-0.7336102724075317,-0.6291227340698242,-4.0094313621521
1683885696759829200,4.293829345703125,-7.3753437995910645,-1.5173988342285156,-5.86411190032959
1683885696776700400,4.310700439453125,-0.5102479457855225,-1.341130256652832,-5.0300445556640625
1683885696793570800,4.32757080078125,2.319955348968506,-1.1824798583984375,-4.711446762084961
1683885696810437600,4.344437744140625,-0.4617600440979004,-1.5062503814697266,-4.027963638305664
1683885696827318500,4.361318603515625,1.3401778936386108,-0.2441244125366211,-0.8862512111663818
1683885696844189200,4.378189208984375,2.16072940826416,1.0003232955932617,1.8709709644317627
1683885696861062700,4.395062744140625,-0.5005980134010315,3.041586399078369,3.4901890754699707
1683885696877934000,4.41193408203125,-1.7032086849212646,4.089750289916992,4.541855812072754
1683885696894804200,4.42880419921875,-1.206343173980713,4.24201774597168,4.952363014221191
1683885696911680800,4.4456806640625,-0.1858164668083191,4.843107223510742,4.569159507751465
1683885696928543500,4.46254345703125,-0.3311423063278198,5.557422161102295,3.6890604496002197
1683885696945422600,4.479422607421875,-2.768683433532715,4.207157611846924,2.9256231784820557
1683885696962288600,4.49628857421875,-4.758413791656494,2.3649306297302246,1.825516700744629
1683885696979176200,4.51317626953125,-5.582701206207275,0.49419307708740234,0.30884289741516113
1683885696996040400,4.53004052734375,-4.251615524291992,-1.633401870727539,-1.108307123184204
1683885697012911400,4.546911376953125,-3.138014078140259,-3.901052474975586,-2.2014098167419434
1683885697029782500,4.563782470703125,-4.359428882598877,-5.870454788208008,-3.5435984134674072
1683885697046658800,4.580658935546875,-5.232478141784668,-5.607908248901367,-4.824326992034912
1683885697063529200,4.597529296875,-3.8954434394836426,-2.9545230865478516,-4.333346366882324
1683885697080400400,4.614400390625,-1.9028223752975464,0.7461118698120117,-3.028679847717285
1683885697097271000,4.63127099609375,1.394849181175232,-0.7041902542114258,0.7181146144866943
1683885697114145300,4.648145263671875,1.3778501749038696,-4.4030609130859375,4.395501613616943
1683885697131020800,4.665020751953125,-2.4176506996154785,-5.481108665466309,5.917028427124023
1683885697147879200,4.681879150390625,-4.222946643829346,-0.15325450897216797,2.989529848098755
1683885697164759300,4.69875927734375,-5.5294952392578125,1.0897703170776367,1.010258674621582
1683885697181637600,4.7156376953125,0.6788305044174194,2.0871739387512207,1.855133056640625
1683885697198507000,4.732507080078125,1.4561337232589722,3.574815273284912,1.4058032035827637
1683885697215378400,4.74937841796875,0.7068513631820679,4.017573356628418,0.8632431030273438
1683885697232241200,4.7662412109375,0.5603005886077881,3.16685152053833,0.9130008220672607
1683885697249112600,4.783112548828125,1.1266109943389893,1.4783000946044922,1.5846080780029297
1683885697265993200,4.7999931640625,1.6952012777328491,-0.20151710510253906,2.2784204483032227
1683885697282871600,4.81687158203125,1.8105014562606812,-0.8506946563720703,2.094061851501465
1683885697299740400,4.833740478515625,1.063032865524292,0.3229093551635742,1.2310431003570557
1683885697316609300,4.850609375,0.7045139670372009,1.667494297027588,0.49091553688049316
1683885697333486000,4.867486083984375,0.7844488620758057,1.784616470336914,0.265761137008667
1683885697350358500,4.884358642578125,0.7084078788757324,1.2836709022521973,0.23429322242736816
1683885697367229400,4.9012294921875,0.5320003628730774,0.27918434143066406,0.3058352470397949
1683885697384098000,4.91809814453125,-0.4443863034248352,0.15154647827148438,0.4178283214569092
1683885697400976600,4.9349765625,-1.5556186437606812,0.1645336151123047,0.521838903427124
1683885697417845200,4.95184521484375,-1.8813077211380005,0.22685527801513672,0.22568845748901367
1683885697434716400,4.96871630859375,-2.115807294845581,0.27501583099365234,-0.654686689376831
1683885697451588900,4.9855888671875,-1.7215701341629028,0.9459123611450195,-0.8756008148193359
1683885697468466200,5.002466064453125,-1.2376689910888672,1.0878515243530273,-0.5320029258728027
1683885697485334300,5.019334228515625,-1.1462461948394775,0.5757417678833008,0.1979224681854248
1683885697502207200,5.036207275390625,-1.3898160457611084,-0.07719993591308594,0.9707129001617432
1683885697519068200,5.053068115234375,-1.4675401449203491,-0.8876104354858398,1.4808692932128906
1683885697535952400,5.069952392578125,-1.4636486768722534,-1.5061302185058594,1.7094674110412598
1683885697552810500,5.086810546875,-1.6196836233139038,-1.8392295837402344,1.7356178760528564
1683885697569699300,5.10369921875,-1.9566240310668945,-1.3353919982910156,1.4436876773834229
1683885697586568000,5.12056787109375,-2.46280574798584,-0.09192085266113281,0.8019504547119141
1683885697603441000,5.13744091796875,-2.90162992477417,0.5213298797607422,0.15051031112670898
1683885697620312000,5.15431201171875,-5.003155708312988,-0.5333080291748047,-0.28961849212646484
1683885697637185000,5.17118505859375,-17.53101921081543,-6.293773651123047,-1.2824325561523438
1683885697654053000,5.18805322265625,-6.07991886138916,-5.845653533935547,-0.4268016815185547
1683885697670930200,5.20493017578125,1.460357427597046,-5.772879600524902,-0.5246410369873047
1683885697687801600,5.221801513671875,-4.200454235076904,-8.29610538482666,-2.48661470413208
1683885697704672500,5.238672607421875,-7.883786201477051,-8.555863380432129,-2.344923973083496
1683885697721545500,5.25554541015625,-5.846810340881348,-5.7046918869018555,-2.0782320499420166
1683885697738419000,5.2724189453125,-3.983242988586426,-2.4803638458251953,-0.3671445846557617
1683885697755292400,5.28929248046875,-0.96562260389328,-0.5692863464355469,1.4819719791412354
1683885697772153000,5.306153076171875,0.6076908111572266,-1.116128921508789,2.6835367679595947
1683885697789024500,5.3230244140625,1.1513575315475464,-1.032160758972168,3.458106517791748
1683885697805908500,5.339908447265625,1.5275311470031738,-1.6376409530639648,4.533382415771484
1683885697822788000,5.3567880859375,1.714081048965454,-1.6202058792114258,5.06241512298584
1683885697839652900,5.37365283203125,2.344242572784424,-0.209625244140625,4.574609756469727
1683885697856513800,5.390513671875,5.060649394989014,0.3593168258666992,3.6039998531341553
1683885697873387000,5.407386962890625,4.350918769836426,1.2229385375976562,3.279517889022827
1683885697890268700,5.4242685546875,2.8061885833740234,2.9587197303771973,2.2938270568847656
1683885697907142000,5.441141845703125,-2.950983762741089,3.5155653953552246,0.5620551109313965
1683885697924002300,5.458002197265625,-4.519622325897217,2.0745835304260254,-0.1927957534790039
1683885697940889300,5.474889404296875,0.030521273612976074,2.128749370574951,0.10142600536346436
1683885697957755600,5.491755615234375,1.6597003936767578,3.116179943084717,1.1876702308654785
1683885697974629000,5.508629150390625,1.0920929908752441,3.704862594604492,3.4427218437194824
1683885697991491300,5.5254912109375,0.5741604566574097,3.9834694862365723,5.1327691078186035
1683885698008375000,5.542375,0.8155511021614075,4.923666954040527,5.774343967437744
1683885698025246500,5.55924658203125,0.21667510271072388,5.9705657958984375,5.7306036949157715
1683885698042120000,5.576119873046875,-0.5750055313110352,7.201817512512207,5.221191883087158
1683885698058973700,5.5929736328125,-0.12923258543014526,7.578249931335449,4.299098968505859
1683885698075864000,5.609864013671875,-1.4255321025848389,4.8290910720825195,3.5555365085601807
1683885698092735500,5.626735595703125,-4.447436332702637,0.47464942932128906,2.6433212757110596
1683885698109609000,5.64360888671875,-6.461812496185303,-3.2835206985473633,1.1032129526138306
1683885698126480100,5.660480224609375,-4.662703514099121,-4.364992141723633,-1.094472050666809
1683885698143353000,5.67735302734375,-3.2386393547058105,-4.025429725646973,-2.5231966972351074
1683885698160224800,5.694224853515625,-3.7916505336761475,-3.502934455871582,-3.017291307449341
1683885698177098000,5.711097900390625,-3.950169801712036,-2.796590805053711,-2.891312599182129
1683885698193969000,5.727968994140625,-2.6828384399414062,-4.531512260437012,1.6668068170547485
1683885698210832000,5.744831787109375,-3.4508144855499268,-7.896327972412109,6.3821187019348145
1683885698227711700,5.761711669921875,-6.272654056549072,-8.397089004516602,9.284490585327148
1683885698244587300,5.778587158203125,-7.017882347106934,-0.8146152496337891,8.361640930175781
1683885698261458400,5.79545849609375,-2.436387062072754,2.8911280632019043,3.4741787910461426
1683885698278331400,5.812331298828125,3.4618990421295166,2.96122407913208,2.406891345977783
1683885698295202800,5.829202880859375,2.7920475006103516,5.133697032928467,1.7676535844802856
1683885698312076300,5.846076171875,1.6939709186553955,6.790684700012207,0.8811908960342407
1683885698328928500,5.862928466796875,2.822679281234741,6.451349258422852,0.36239421367645264
1683885698345820700,5.879820556640625,3.051894426345825,3.9543213844299316,1.2194831371307373
1683885698362691600,5.896691650390625,2.1231203079223633,0.2625408172607422,2.922485828399658
1683885698379565300,5.9135654296875,1.7952312231063843,-3.6859235763549805,4.598597526550293
1683885698396436200,5.930436279296875,0.9083731770515442,-4.749544143676758,5.205839157104492
1683885698413310500,5.947310546875,-0.007729858160018921,-0.3212156295776367,3.412703037261963
1683885698430181000,5.96418115234375,-0.20628949999809265,2.876054286956787,1.813737154006958
1683885698447053600,5.981053466796875,-0.22385048866271973,3.784417152404785,1.2952773571014404
1683885698463926800,5.9979267578125,-0.2184760570526123,2.977536201477051,1.5780534744262695
1683885698480799000,6.014799072265625,-0.13290686905384064,1.363408088684082,1.9801764488220215
1683885698497667800,6.031667724609375,-0.48843473196029663,-0.20963764190673828,2.5364904403686523
1683885698514543400,6.04854345703125,-0.7423721551895142,-0.5079555511474609,2.806612491607666
1683885698531417300,6.065417236328125,-0.4802234172821045,0.3082284927368164,2.6266772747039795
1683885698548288000,6.0822880859375,-0.5812647938728333,0.9866876602172852,2.342721939086914
1683885698565156600,6.099156494140625,-0.8686620593070984,1.253143310546875,2.125486135482788
1683885698582035500,6.116035400390625,-1.1424176692962646,0.9839057922363281,2.1627695560455322
1683885698598885600,6.1328857421875,-1.1656500101089478,0.41823291778564453,2.3840441703796387
1683885698615777300,6.14977734375,-1.009307622909546,-0.09008598327636719,2.609071731567383
1683885698632648700,6.166648681640625,-0.9238048791885376,-0.17528152465820312,2.521829128265381
1683885698649522000,6.18352197265625,-1.0051798820495605,0.05815887451171875,2.2567672729492188
1683885698666392800,6.200392822265625,-1.137236475944519,0.2245044708251953,1.9456894397735596
1683885698683266300,6.217266357421875,-1.275890827178955,0.4006376266479492,1.560469388961792
1683885698700137700,6.2341376953125,-1.3835090398788452,0.5472993850708008,1.1721901893615723
1683885698717011200,6.25101123046875,-1.3516387939453125,0.43192577362060547,0.8947398662567139
1683885698733882400,6.26788232421875,-1.2339322566986084,0.14178085327148438,0.6976358890533447
1683885698750755600,6.284755615234375,-1.0719642639160156,-0.1464242935180664,0.5456681251525879
1683885698767626800,6.301626708984375,-0.9870694875717163,-0.31680774688720703,0.3535425662994385
1683885698784495600,6.31849560546875,-1.049768090248108,-0.26879119873046875,0.06187319755554199
1683885698801375500,6.33537548828125,-1.1681973934173584,-0.2347545623779297,-0.20455193519592285
1683885698818244900,6.352244873046875,-1.4079434871673584,-0.3981447219848633,-0.46575140953063965
1683885698835116300,6.3691162109375,-1.6248879432678223,-0.4999399185180664,-0.6542274951934814
1683885698851989200,6.3859892578125,-1.8235743045806885,-0.7625255584716797,-0.8451693058013916
1683885698868860700,6.402860595703125,-1.7781577110290527,-1.088857650756836,-1.0420620441436768
1683885698885734000,6.41973388671875,-1.0211652517318726,-1.3046875,-1.1264169216156006
1683885698902604800,6.436604736328125,-0.8304469585418701,-1.3382129669189453,-1.1270909309387207
1683885698919477800,6.453477783203125,-1.025607705116272,-1.0621747970581055,-1.1055395603179932
1683885698936350000,6.470349853515625,-1.235701084136963,-0.6949787139892578,-1.0177545547485352
1683885698953223200,6.48722314453125,-1.2492282390594482,-0.5808134078979492,-0.9667394161224365
1683885698970094600,6.504094482421875,-1.301628589630127,-0.8108253479003906,-0.8574023246765137
1683885698986967800,6.5209677734375,-1.3706080913543701,-1.729574203491211,-0.434093713760376
1683885699003828200,6.537828125,-1.2918057441711426,-2.8938159942626953,0.015291690826416016
1683885699020703500,6.554703369140625,-1.018412470817566,-3.7027597427368164,0.3054540157318115
1683885699037583600,6.57158349609375,-1.0689222812652588,-3.7558975219726562,0.4188203811645508
1683885699054446000,6.588446044921875,-1.3556956052780151,-2.9914426803588867,0.4392971992492676
1683885699071328300,6.605328369140625,-1.7198044061660767,-1.8115053176879883,0.45734739303588867
1683885699088201700,6.62220166015625,-2.609015703201294,-0.8988018035888672,0.5896191596984863
1683885699105070300,6.6390703125,-11.272672653198242,-0.15198135375976562,1.0667452812194824
1683885699121948400,6.655948486328125,-8.974846839904785,0.21225738525390625,0.9170205593109131
1683885699138817300,6.6728173828125,-15.558822631835938,0.055375099182128906,1.763685703277588
1683885699155680500,6.689680419921875,-19.68889617919922,-0.5375871658325195,4.946333885192871
1683885699172562200,6.706562255859375,-1.8174093961715698,-1.09393310546875,3.9514832496643066
1683885699189435400,6.723435302734375,9.204092979431152,-0.21371746063232422,-0.3295094966888428
1683885699206306300,6.740306396484375,4.886641979217529,1.6915874481201172,-0.45964980125427246
1683885699223179800,6.7571796875,0.6134743690490723,1.5566754341125488,0.07905864715576172
1683885699240051200,6.77405126953125,0.04863458871841431,-1.6374626159667969,2.148740768432617
1683885699256924400,6.79092431640625,0.9633447527885437,-3.984999656677246,3.8689980506896973
1683885699273795800,6.8077958984375,1.0536746978759766,-3.319882392883301,3.5728869438171387
1683885699290669300,6.82466943359375,0.15244442224502563,-0.366729736328125,1.989915132522583
1683885699307540200,6.841540283203125,0.7232919335365295,0.5345611572265625,0.4010961055755615
1683885699324414000,6.8584140625,1.3173450231552124,0.850865364074707,-1.3559558391571045
1683885699341285000,6.87528515625,-2.2153480052948,1.1082401275634766,-2.9440066814422607
1683885699358158300,6.892158447265625,-2.42378568649292,0.9137716293334961,-3.3095510005950928
1683885699375029500,6.909029541015625,-0.551611065864563,0.48663997650146484,-2.90939998626709
1683885699391903000,6.925903076171875,-0.12402203679084778,0.31015872955322266,-1.2991082668304443
1683885699408763600,6.942763671875,-0.2532389760017395,0.7331256866455078,1.0290937423706055
1683885699425647900,6.95964794921875,-0.5986883044242859,1.708846092224121,2.261845588684082
1683885699442516500,6.9765166015625,-0.9482098817825317,2.970343589782715,2.7076168060302734
1683885699459394600,6.99339453125,-0.9817322492599487,3.8122901916503906,2.8506836891174316
1683885699476263400,7.010263427734375,-0.6351108551025391,4.067882061004639,2.6308319568634033
1683885699493136600,7.02713671875,-0.4386940002441406,4.43923807144165,2.07413911819458
1683885699510009000,7.044009033203125,-0.3572414517402649,4.105915069580078,1.527801513671875
1683885699526880800,7.060880859375,-0.9079259634017944,2.8188915252685547,1.0822186470031738
1683885699543752700,7.077752685546875,-1.8971621990203857,1.656540870666504,0.5185778141021729
1683885699560626000,7.0946259765625,-2.3946335315704346,0.6570243835449219,-0.09516000747680664
1683885699577497600,7.11149755859375,-2.692143440246582,-0.13031673431396484,-0.6167742013931274
1683885699594370600,7.12837060546875,-2.824223279953003,-1.2933263778686523,-0.9655261039733887
1683885699611242000,7.145241943359375,-2.606889247894287,-2.53403377532959,-1.6159393787384033
1683885699628113200,7.162113037109375,-3.3817391395568848,-3.3757143020629883,-2.3531811237335205
1683885699644986600,7.178986572265625,-4.358313083648682,-3.277459144592285,-2.683220863342285
1683885699661862700,7.195862548828125,-4.830448627471924,-2.0994691848754883,-2.5246291160583496
1683885699678732300,7.212732177734375,-4.178703308105469,-1.2596426010131836,-1.389480471611023
1683885699695607600,7.229607666015625,-1.6551417112350464,-3.7892236709594727,2.159975528717041
1683885699712477200,7.246477294921875,-0.699135959148407,-5.08051872253418,4.700093746185303
1683885699729355500,7.26335546875,-0.15476810932159424,-3.108181953430176,5.443358421325684
1683885699746219000,7.280218994140625,-0.5784615278244019,-1.319563865661621,4.922935485839844
1683885699763094000,7.297093994140625,-2.113508701324463,1.258951187133789,4.330378532409668
1683885699779963000,7.313962890625,-3.093132972717285,3.648059368133545,3.224839687347412
1683885699796839000,7.3308388671875,-2.104698896408081,4.715195178985596,1.933683156967163
1683885699813712100,7.347712158203125,-1.0902540683746338,4.831116676330566,1.063448429107666
1683885699830583600,7.36458349609375,-0.47453415393829346,4.36122989654541,0.8078513145446777
1683885699847454500,7.381454345703125,-0.06281065940856934,3.341975688934326,0.8697490692138672
1683885699864328000,7.398327880859375,0.39306867122650146,1.3298454284667969,1.5306906700134277
1683885699881199000,7.41519921875,0.7008635997772217,-1.1562376022338867,2.7094216346740723
1683885699898072600,7.432072509765625,0.5169209241867065,-2.350679397583008,3.1804168224334717
1683885699914945300,7.4489453125,-0.19160395860671997,-1.0983505249023438,2.207209348678589
1683885699931816000,7.46581591796875,-0.5601463317871094,0.4921455383300781,1.4762399196624756
1683885699948685600,7.482685546875,-0.48479676246643066,1.2741670608520508,1.223327875137329
1683885699965564400,7.499564453125,-0.45773833990097046,2.058022975921631,0.7794725894927979
1683885699982433000,7.51643310546875,-0.4019092917442322,2.0384011268615723,0.4895632266998291
1683885699999306500,7.533306396484375,-0.2983522415161133,1.0508708953857422,0.67240309715271
1683885700016178000,7.550177978515625,-0.14650797843933105,-0.09713554382324219,0.9789655208587646
1683885700033051400,7.567051513671875,-0.04707908630371094,-0.49619293212890625,1.123075246810913
1683885700049922600,7.583922607421875,-0.38099515438079834,0.17668533325195312,0.8148484230041504
1683885700066795800,7.600795654296875,-0.9066267013549805,0.4662752151489258,0.6443724632263184
1683885700083666700,7.617666748046875,-1.1917561292648315,0.26132774353027344,0.7248296737670898
1683885700100540700,7.634540771484375,-1.1370011568069458,0.126373291015625,0.7843775749206543
1683885700117411800,7.651411865234375,-0.6776551008224487,0.1978759765625,0.5967249870300293
1683885700134285300,7.668285400390625,-0.3540884852409363,0.21893596649169922,0.37773847579956055
1683885700151153400,7.6851533203125,-0.41464418172836304,0.3276386260986328,0.2100353240966797
1683885700168019500,7.70201953125,-0.44060152769088745,0.26294517517089844,0.1982262134552002
1683885700184899600,7.718899658203125,-0.49172353744506836,0.11577320098876953,0.4112865924835205
1683885700201777000,7.73577685546875,-0.5152567028999329,0.06367301940917969,0.6024689674377441
1683885700218646000,7.75264599609375,-0.5974168181419373,0.0740518569946289,0.7049040794372559
1683885700235519500,7.76951953125,-0.7383916974067688,0.1464681625366211,0.755983829498291
1683885700252390100,7.78639013671875,-0.9994770884513855,0.22346019744873047,0.7522177696228027
1683885700269253600,7.803253662109375,-1.3229918479919434,0.2071676254272461,0.7138807773590088
1683885700286134800,7.820134765625,-1.7471458911895752,0.22154903411865234,0.5912673473358154
1683885700303008500,7.837008544921875,-2.047377586364746,0.04300117492675781,0.5734269618988037
1683885700319879700,7.853879638671875,-2.2710180282592773,-0.14071178436279297,0.5173525810241699
1683885700336742700,7.87074267578125,-2.409069299697876,-0.23448944091796875,0.3725759983062744
1683885700353624600,7.88762451171875,-2.3326263427734375,-0.2137889862060547,0.16673922538757324
1683885700370498000,7.904498046875,-2.2632458209991455,-0.07862091064453125,-0.009045839309692383
1683885700387374600,7.92137451171875,-2.3506977558135986,0.047562599182128906,-0.19560861587524414
1683885700404253700,7.938253662109375,-2.88979434967041,-0.0641183853149414,-0.43990039825439453
1683885700421113600,7.955113525390625,-2.794025182723999,-0.1495504379272461,-0.7484948635101318
1683885700437987300,7.9719873046875,-2.0085835456848145,-0.314300537109375,-0.96494460105896
1683885700454856000,7.98885595703125,-1.446283221244812,-0.6844301223754883,-1.2120952606201172
1683885700471734500,8.005734619140625,-1.1224018335342407,-2.1242685317993164,-1.1268925666809082
1683885700488603100,8.02260302734375,-0.3794158697128296,-4.270373344421387,-0.8420619964599609
1683885700505476600,8.0394765625,0.42650818824768066,-6.800393104553223,-0.33469510078430176
1683885700522348000,8.05634814453125,-0.3367723226547241,-9.7029390335083,0.9538874626159668
1683885700539221500,8.073221435546875,-7.891686916351318,-10.789372444152832,2.5937294960021973
1683885700556092400,8.090092529296875,-6.228747367858887,-3.26157283782959,0.9934101104736328
1683885700572966100,8.106966064453125,-4.750166893005371,-0.3574180603027344,0.704585075378418
1683885700589837000,8.123837158203125,-18.104244232177734,4.02537727355957,1.3115410804748535
1683885700606710500,8.14071044921875,-11.164125442504883,3.271857738494873,3.8289856910705566
1683885700623582200,8.157582275390626,6.0775651931762695,2.838327407836914,0.5673627853393555
1683885700640452600,8.17445263671875,8.584424018859863,2.6285219192504883,-1.1440720558166504
1683885700657329200,8.1913291015625,2.5105295181274414,1.4675679206848145,-0.14980721473693848
1683885700674199800,8.20819970703125,-0.7641213536262512,-0.4865903854370117,0.9207055568695068
1683885700691071200,8.2250712890625,-0.6969858407974243,-3.2462387084960938,2.917102575302124
1683885700707944700,8.24194482421875,0.6589682102203369,-3.333380699157715,3.7830989360809326
1683885700724813600,8.2588134765625,2.596670150756836,-0.7202110290527344,3.096407651901245
1683885700741678800,8.275678955078124,4.205798625946045,1.0952796936035156,1.6419949531555176
1683885700758553600,8.2925537109375,2.123096466064453,1.7649202346801758,-0.08266115188598633
1683885700775436300,8.309436279296875,-0.15334901213645935,2.9381489753723145,-1.5575861930847168
1683885700792305200,8.32630517578125,-0.5526249408721924,3.5586557388305664,-1.908881664276123
1683885700809169000,8.3431689453125,0.5302320122718811,3.664210796356201,-1.197165608406067
1683885700826050300,8.36005029296875,0.6351549625396729,3.4513587951660156,0.06935262680053711
1683885700842928600,8.3769287109375,-0.05893412232398987,3.34906005859375,1.675746202468872
1683885700859794700,8.393794677734375,-0.8654056787490845,3.703904151916504,2.880803108215332
1683885700876668200,8.410668212890625,-1.0270617008209229,4.424175262451172,3.3126487731933594
1683885700893535700,8.42753564453125,-0.6933342814445496,5.087996006011963,3.0873048305511475
1683885700910413600,8.44441357421875,-0.5012522339820862,4.742502689361572,2.0415828227996826
1683885700927287000,8.461287109375,-1.7192362546920776,2.899087429046631,0.6024274826049805
1683885700944157400,8.478157470703126,-5.14934778213501,-0.5727310180664062,-0.6128194332122803
1683885700961026300,8.4950263671875,-6.196619033813477,-4.424962997436523,-2.071538209915161
1683885700977905200,8.5119052734375,-3.9281744956970215,-7.161937713623047,-3.59271502494812
1683885700994773800,8.528773681640626,-2.251458168029785,-6.756146430969238,-4.9601922035217285
1683885701011649800,8.54564990234375,-3.7791407108306885,-5.201233863830566,-5.621496200561523
1683885701028515000,8.56251513671875,-3.326045036315918,-2.4755325317382812,-4.569636821746826
1683885701045391600,8.5793916015625,-0.923451840877533,-3.2817487716674805,1.5795056819915771
1683885701062263000,8.596262939453124,-0.029571354389190674,-4.813961982727051,6.3815765380859375
1683885701079126300,8.613126220703125,-1.2330173254013062,-2.3477344512939453,7.5296173095703125
1683885701096000500,8.63000048828125,-0.3619396984577179,1.5885019302368164,5.803390026092529
1683885701112881200,8.646881103515625,2.249943256378174,3.279460906982422,3.2257697582244873
1683885701129752600,8.663752685546875,0.3231678009033203,4.997837066650391,1.3877313137054443
1683885701146625800,8.680625732421875,-1.2422657012939453,5.500003337860107,0.8483874797821045
1683885701163497200,8.697497314453125,-0.3082925081253052,4.53271484375,1.3145849704742432
1683885701180370700,8.71437060546875,0.12870126962661743,3.2931113243103027,1.5819578170776367
1683885701197241600,8.73124169921875,0.578579306602478,1.2679872512817383,2.154024124145508
1683885701214115300,8.748115234375,1.1856729984283447,-1.4160490036010742,3.1738953590393066
1683885701230986800,8.76498681640625,1.4754458665847778,-3.230623245239258,3.86202335357666
1683885701247860000,8.78185986328125,0.7245871424674988,-1.3490476608276367,2.683861494064331
1683885701264719400,8.79871923828125,0.5805051922798157,1.224639892578125,1.3050925731658936
1683885701281606100,8.815606201171875,0.5227991342544556,2.517094135284424,0.677462100982666
1683885701298476000,8.83247607421875,0.4949609339237213,2.8423690795898438,0.2640268802642822
1683885701315349500,8.849349609375,0.6882597208023071,1.8856754302978516,0.32570815086364746
1683885701332221000,8.866220947265624,0.8879644870758057,0.31195068359375,0.6812007427215576
1683885701349083600,8.883083740234374,0.6937062740325928,-0.6642246246337891,0.7830326557159424
1683885701365965300,8.89996533203125,0.45190680027008057,-0.6652631759643555,0.5416061878204346
1683885701382838800,8.9168388671875,0.5576527714729309,0.27018165588378906,0.11789536476135254
1683885701399710200,8.933710205078125,0.4987897276878357,0.9874496459960938,-0.4178953170776367
1683885701416583700,8.950583740234375,0.18138355016708374,0.7050247192382812,-0.6820681095123291
1683885701433455000,8.967455078125,-0.04296258091926575,-0.029870986938476562,-0.7370057106018066
1683885701450328600,8.98432861328125,-0.9320684671401978,-0.9215364456176758,-0.7519080638885498
1683885701467199500,9.001199462890625,-3.8536953926086426,-1.4424219131469727,-1.0156500339508057
1683885701484072700,9.01807275390625,-2.8660049438476562,-0.9490184783935547,-1.3565471172332764
1683885701500945400,9.0349453125,-1.1889140605926514,-0.8082561492919922,-1.4969801902770996
1683885701517824300,9.05182421875,-0.9783449769020081,-0.6797895431518555,-1.7683515548706055
1683885701534687200,9.068687255859375,-2.9127533435821533,-0.4274873733520508,-2.054819345474243
1683885701551564300,9.085564208984374,-4.695268630981445,-0.7396631240844727,-2.256585121154785
1683885701568433700,9.10243359375,-1.9413658380508423,-0.943751335144043,-2.575718641281128
1683885701585304600,9.1193046875,-0.4050717353820801,-1.3887386322021484,-2.769972085952759
1683885701602181000,9.13618115234375,0.7630033493041992,-2.123170852661133,-3.0622053146362305
1683885701619041500,9.15304150390625,0.4937608242034912,-3.9683284759521484,-2.803649425506592
1683885701635923200,9.169923095703124,0.526555061340332,-6.185423374176025,-1.6386940479278564
1683885701652797000,9.186796875,-1.3621442317962646,-4.99569034576416,-1.6367881298065186
1683885701669668400,9.20366845703125,-5.675192832946777,-5.252470016479492,-0.6412782669067383
1683885701686541800,9.220541748046875,-8.236007690429688,-6.086490631103516,1.0304789543151855
1683885701703412500,9.23741259765625,-6.402823448181152,-5.4014434814453125,2.228642463684082
1683885701720275700,9.254275634765625,-2.9778945446014404,-3.0785627365112305,1.6851439476013184
1683885701737157600,9.27115771484375,-1.9271841049194336,-0.6709995269775391,-0.3996701240539551
1683885701754031000,9.288031005859375,-0.2686793804168701,0.5843796730041504,-1.247725009918213
1683885701770902300,9.30490234375,0.5763447880744934,2.268688201904297,-1.5360133647918701
1683885701787779600,9.321779541015625,0.9594430923461914,1.787672519683838,-0.9088075160980225
1683885701804647200,9.338647216796875,2.4612348079681396,-0.34075260162353516,0.5716280937194824
1683885701821520400,9.355520263671876,3.3512253761291504,-1.3567218780517578,1.4449338912963867
1683885701838391600,9.3723916015625,4.170184135437012,-1.670781135559082,1.3929147720336914
1683885701855265300,9.389265380859374,4.4236955642700195,-0.9649019241333008,0.771028995513916
1683885701872136200,9.40613623046875,4.615920066833496,-0.5623645782470703,0.7524008750915527
1683885701888999200,9.422999267578126,3.1788222789764404,0.20551013946533203,0.26023149490356445
1683885701905879000,9.439879150390626,-0.8514984846115112,0.8747091293334961,-0.8989152908325195
1683885701922757000,9.456757080078125,-2.5146307945251465,0.8362550735473633,-1.4017688035964966
1683885701939626000,9.4736259765625,0.39275509119033813,0.9785776138305664,-1.259063959121704
1683885701956499200,9.490499267578125,1.727203369140625,1.2608671188354492,-1.2370595932006836
1683885701973370600,9.50737060546875,1.3253225088119507,1.510685920715332,0.5686876773834229
1683885701990244000,9.524244140625,-0.07564140856266022,1.9415173530578613,2.7884697914123535
1683885702007115500,9.541115478515625,-0.6700332164764404,3.037494659423828,4.275944709777832
1683885702023986700,9.557986572265625,-0.4448385238647461,4.015598773956299,5.573746204376221
1683885702040862200,9.5748623046875,-0.022014185786247253,4.188913822174072,6.3075785636901855
1683885702057733600,9.591733642578125,0.02083677053451538,4.727752208709717,6.416296482086182
1683885702074604800,9.608604736328125,0.21318238973617554,5.293700695037842,6.035245895385742
1683885702091478500,9.625478515625,-0.15560361742973328,4.879896640777588,4.930094242095947
1683885702108350000,9.642349853515626,-4.856135368347168,2.038961887359619,3.0794501304626465
1683885702125223200,9.65922314453125,-7.794186115264893,-1.8339061737060547,1.1656795740127563
1683885702142091800,9.676091796875,-3.7638754844665527,-4.4872894287109375,-1.215646505355835
1683885702158976800,9.692976806640624,0.7925346493721008,-5.313709259033203,-3.633709192276001
1683885702175839000,9.7098388671875,-2.5785279273986816,-5.540589332580566,-4.62089204788208
1683885702192712200,9.726712158203124,-5.773623943328857,-3.554065704345703,-4.141111373901367
1683885702209584000,9.743584228515624,-3.7270915508270264,0.5023689270019531,-1.5371166467666626
1683885702226457000,9.76045703125,0.020875364542007446,1.2384233474731445,1.911098837852478
1683885702243328300,9.777328369140625,2.168679714202881,-3.71254825592041,6.939918518066406
1683885702260200400,9.794200439453125,-0.14027544856071472,-3.7753725051879883,8.187626838684082
1683885702277076000,9.811075927734375,-0.4536941647529602,0.28316783905029297,7.112701416015625
1683885702293944000,9.827944091796875,2.4974117279052734,2.2962231636047363,4.282927989959717
1683885702310820900,9.84482080078125,0.6625205874443054,3.7114410400390625,2.0886237621307373
1683885702327691500,9.86169140625,-0.11113178730010986,4.072649002075195,1.7098197937011719
1683885702344560400,9.878560302734375,0.6820761561393738,4.206329822540283,1.8365484476089478
1683885702361439000,9.89543896484375,0.6135098934173584,3.91853666305542,1.4501912593841553
1683885702378307800,9.912307861328125,1.0513499975204468,2.399172782897949,1.6342213153839111
1683885702395181300,9.929181396484376,1.8179669380187988,-0.5492057800292969,2.658916473388672
1683885702412052200,9.94605224609375,2.5195822715759277,-2.918938636779785,3.4137842655181885
1683885702428929300,9.96292919921875,2.216525077819824,-2.0155515670776367,2.4425532817840576
1683885702445797000,9.979797119140626,1.4918384552001953,1.061727523803711,0.8271231651306152
1683885702462670800,9.9966708984375,1.3283438682556152,2.153108596801758,0.3554818630218506
1683885702479541800,10.013541748046874,1.2897214889526367,2.0759215354919434,0.35676002502441406
1683885702496415500,10.03041552734375,1.3847782611846924,1.5331220626831055,0.2756807804107666
1683885702513287000,10.047286865234375,1.0883970260620117,0.422515869140625,0.4588789939880371
1683885702530160000,10.06416015625,0.44354039430618286,-0.31966590881347656,0.827455997467041
1683885702547027000,10.08102685546875,0.003228217363357544,0.3290243148803711,0.7372567653656006
1683885702563906800,10.09790673828125,-0.1351262778043747,1.5374655723571777,0.07872819900512695
1683885702580786200,10.1147861328125,-0.4827648103237152,1.5443410873413086,-0.3906824588775635
1683885702597649700,10.131649658203125,-0.7021487951278687,0.609349250793457,-0.5126183032989502
1683885702614519800,10.148519775390625,-0.9052404761314392,-0.25383758544921875,-0.32695937156677246
1683885702631395800,10.165395751953126,-0.7046967148780823,-0.2511129379272461,0.05549430847167969
1683885702648265500,10.182265380859375,-0.39229145646095276,-0.2508516311645508,0.14612650871276855
1683885702665136000,10.19913623046875,-0.2868073582649231,-0.10700416564941406,0.11905241012573242
1683885702682013200,10.21601318359375,-0.29164183139801025,0.21354198455810547,0.0017786026000976562
1683885702698869800,10.232869873046875,-0.39846885204315186,0.4594879150390625,-0.12070298194885254
1683885702715755300,10.24975537109375,-0.4907200336456299,0.7200098037719727,-0.468416690826416
1683885702732628700,10.266628662109374,-0.5720986723899841,0.5560626983642578,-0.7757208347320557
1683885702749500200,10.283500244140624,-0.4947918653488159,-0.3505744934082031,-0.7891077995300293
1683885702766373400,10.300373291015624,-0.3195847272872925,-1.7524528503417969,-0.5964016914367676
1683885702783244500,10.31724462890625,-0.1379404067993164,-4.096294403076172,-0.07372736930847168
1683885702800118000,10.334117919921875,-2.506197452545166,-6.94110107421875,0.2004866600036621
1683885702816989700,10.35098974609375,-2.655606746673584,-7.554032325744629,-0.34729504585266113
1683885702833863000,10.36786279296875,-4.363128662109375,-7.77100944519043,-0.4246945381164551
1683885702850734000,10.384734130859375,-20.53215980529785,-6.357274055480957,-0.2585792541503906
1683885702867608000,10.401608154296875,-13.238076210021973,-3.5934009552001953,1.6930413246154785
1683885702884478700,10.418478759765625,5.645025730133057,-1.8487844467163086,-0.21312904357910156
1683885702901352400,10.4353525390625,6.583182334899902,0.7480974197387695,-0.9431478977203369
1683885702918223600,10.4522236328125,0.2635672986507416,2.5372138023376465,-0.37588000297546387
1683885702935086800,10.4690869140625,-0.45758968591690063,0.3206920623779297,2.148926258087158
1683885702951968800,10.48596875,1.9926915168762207,-1.0755958557128906,3.5184521675109863
1683885702968843500,10.502843505859374,1.9765398502349854,-1.615666389465332,3.81423282623291
1683885702985711900,10.5197119140625,1.3728947639465332,-1.9547605514526367,4.421947479248047
1683885703002586600,10.536586669921874,2.547375202178955,-0.04659843444824219,3.691307306289673
1683885703019458000,10.5534580078125,5.653828144073486,1.0784578323364258,2.457335948944092
1683885703036331800,10.570331787109374,5.451202869415283,2.1601052284240723,1.8400171995162964
1683885703053202700,10.58720263671875,1.4265564680099487,2.659243106842041,0.6642723083496094
1683885703070076400,10.604076416015625,-1.4662649631500244,3.110866069793701,-0.414394736289978
1683885703086947800,10.62094775390625,1.0385212898254395,3.215268135070801,-0.6782694458961487
1683885703103821000,10.637821044921875,2.22006893157959,3.735456943511963,0.2521425485610962
1683885703120692200,10.654692138671875,2.3027141094207764,3.5877928733825684,2.196181297302246
1683885703137565700,10.671565673828125,1.8994357585906982,3.4244513511657715,3.536721706390381
1683885703154437000,10.68843701171875,1.547980785369873,3.7437310218811035,4.500389099121094
1683885703171302000,10.705302001953125,1.856187105178833,4.484510898590088,5.166806221008301
1683885703188182300,10.722182373046875,1.1579201221466064,5.359560489654541,5.75206184387207
1683885703205052700,10.739052734375,-0.0020107626914978027,6.123433589935303,5.9314775466918945
1683885703221929500,10.755929443359374,-0.8701603412628174,6.519330978393555,6.03333854675293
1683885703238796000,10.772796142578125,-2.4096317291259766,4.4259490966796875,6.023175239562988
1683885703255671300,10.78967138671875,-9.221549987792969,-0.18040847778320312,4.472218990325928
1683885703272544800,10.806544677734376,-9.953877449035645,-5.670048713684082,0.157609224319458
1683885703289416400,10.82341650390625,-2.27315092086792,-8.39828872680664,-3.4977073669433594
1683885703306289700,10.84028955078125,0.4777584671974182,-8.227530479431152,-4.92033576965332
1683885703323161300,10.857161376953124,-5.145194053649902,-6.221260070800781,-5.776063442230225
1683885703340024600,10.874024658203124,-5.530670166015625,-3.701249122619629,-5.087259769439697
1683885703356905000,10.890905029296874,-2.8502936363220215,-1.7361860275268555,-0.18403410911560059
1683885703373779000,10.907779052734375,0.3994075655937195,-5.346884727478027,6.791224956512451
1683885703390650600,10.924650634765625,-0.2342129647731781,-3.9169483184814453,8.364822387695312
1683885703407524600,10.941524658203125,-3.991347551345825,0.5626707077026367,8.603517532348633
1683885703424394800,10.958394775390625,0.3614714741706848,3.2088003158569336,4.649068832397461
1683885703441268700,10.975268798828125,6.089056491851807,2.229623794555664,3.282421588897705
1683885703458140200,10.99214013671875,3.46943736076355,4.287136554718018,1.6077908277511597
1683885703475013400,11.009013427734375,0.6679160594940186,5.896048069000244,0.6945145130157471
1683885703491884800,11.025884765625,-0.43824267387390137,6.4109954833984375,0.8088009357452393
1683885703508748000,11.042748046875,0.15340423583984375,5.775935173034668,0.6818437576293945
1683885703525630000,11.0596298828125,0.9099233150482178,2.2319860458374023,1.994145393371582
1683885703542503200,11.076503173828126,2.061030626296997,-2.8915843963623047,4.4701128005981445
1683885703559374300,11.093374267578126,1.7741360664367676,-5.6937150955200195,5.607944488525391
1683885703576247800,11.110247802734374,0.9035714864730835,-1.7698297500610352,3.5259530544281006
1683885703593119000,11.127118896484374,0.8272800445556641,2.174088478088379,1.69895339012146
1683885703609992400,11.143992431640624,0.6657280325889587,3.2489795684814453,1.130399227142334
1683885703626864000,11.160864013671874,0.621481716632843,3.032245635986328,0.8707981109619141
1683885703643737600,11.177737548828125,0.7032995223999023,2.1683273315429688,0.6835165023803711
1683885703660596200,11.19459619140625,0.48842853307724,0.8115453720092773,0.8061838150024414
1683885703677472000,11.211471923828125,0.503950834274292,-0.1420431137084961,0.8598380088806152
1683885703694344400,11.228344482421875,0.6883143186569214,-0.09003639221191406,0.5128045082092285
1683885703711219200,11.24521923828125,0.34754490852355957,0.20608901977539062,-0.02916240692138672
1683885703728085200,11.262085205078124,0.22262722253799438,0.11365127563476562,-0.6222474575042725
1683885703744964400,11.27896435546875,0.3917524218559265,0.1623687744140625,-0.772923469543457
1683885703761835500,11.29583544921875,0.3388283848762512,-0.2804584503173828,-0.7398021221160889
1683885703778728200,11.312728271484374,0.1393842101097107,-1.3075666427612305,-0.514678955078125
1683885703795578600,11.32957861328125,-0.3303607702255249,-1.8107271194458008,-0.3705158233642578
1683885703812454100,11.3464541015625,-0.9881855249404907,-1.4579839706420898,-0.5113368034362793
1683885703829321500,11.363321533203125,-2.227695941925049,-0.8779315948486328,-0.7087318897247314
1683885703846196000,11.380196044921876,-8.86427116394043,-0.3042335510253906,-0.6844525337219238
1683885703863071000,11.397071044921875,-4.790414333343506,-0.21129417419433594,-0.9440784454345703
1683885703879941000,11.413941162109374,-1.486938714981079,-1.4606800079345703,-0.8173060417175293
1683885703896813300,11.430813232421874,-0.9633055925369263,-1.8130884170532227,-0.9770071506500244
1683885703913689600,11.447689697265625,-0.6251078844070435,-1.3814306259155273,-1.4398772716522217
1683885703930557000,11.464556884765624,-0.5058518648147583,-1.1167984008789062,-1.8081536293029785
1683885703947431000,11.481430908203125,-0.6990567445755005,-1.2248420715332031,-1.7386040687561035
1683885703964301600,11.498301513671874,-4.744060516357422,-1.7082910537719727,-0.6390273571014404
1683885703981177900,11.515177734375,-5.956516265869141,-1.0740594863891602,-0.649517297744751
1683885703998046500,11.53204638671875,-1.923746109008789,-2.3339948654174805,-0.9991409778594971
1683885704014930200,11.54893017578125,-0.956832766532898,-4.6307830810546875,-0.06954526901245117
1683885704031804200,11.56580419921875,-4.7715349197387695,-6.27928352355957,0.09888648986816406
1683885704048674600,11.582674560546875,-13.673196792602539,-6.69525146484375,-0.5536346435546875
1683885704065546000,11.5995458984375,-15.567586898803711,-5.265883445739746,0.7975358963012695
1683885704082401300,11.6164013671875,2.3225481510162354,-4.119084358215332,-0.6723871231079102
1683885704099291000,11.633290771484376,4.76531457901001,-2.447249412536621,-0.13949060440063477
1683885704116164400,11.650164306640624,-3.240398406982422,-0.7747516632080078,3.4816606044769287
1683885704133031400,11.667031494140625,-1.2677454948425293,0.39372730255126953,3.7650086879730225
1683885704149909200,11.6839091796875,1.3457881212234497,-0.07178497314453125,3.5562684535980225
1683885704166780400,11.700780517578124,2.316455841064453,-0.5378780364990234,4.251844882965088
1683885704183657500,11.717657470703125,2.893207550048828,-0.19669532775878906,4.991999626159668
1683885704200525000,11.734525146484375,3.9240198135375977,0.6822023391723633,4.994815826416016
1683885704217398800,11.751398681640625,3.427377700805664,1.8240694999694824,4.624051094055176
1683885704234259700,11.768259765625,1.462493896484375,2.357607841491699,3.270534038543701
1683885704251145500,11.7851455078125,-0.12070876359939575,3.6400818824768066,2.0012478828430176
1683885704268013300,11.802013427734375,0.5090190768241882,5.019090175628662,1.3824740648269653
1683885704284885500,11.818885498046875,2.0655763149261475,5.789999961853027,1.1145929098129272
1683885704301762000,11.835761962890626,2.2517917156219482,6.088106155395508,1.5307866334915161
1683885704318633200,11.85263330078125,1.170286774635315,5.956455230712891,2.193387508392334
1683885704335494100,11.869494140625,0.5781940817832947,5.6140594482421875,2.754896640777588
1683885704352377900,11.8863779296875,-0.2429225593805313,5.340198516845703,3.3844399452209473
1683885704369237000,11.903237060546875,-0.7871255874633789,5.004745006561279,3.6052770614624023
1683885704386125800,11.920125732421875,-1.0771597623825073,3.805819034576416,3.4376869201660156
1683885704402992000,11.9369921875,-1.865233063697815,1.4932832717895508,2.658137083053589
1683885704419867100,11.9538671875,-2.3493409156799316,-1.9106807708740234,0.1869279146194458
1683885704436738600,11.970738525390624,-3.334765911102295,-5.068306922912598,-3.497279644012451
1683885704453612300,11.9876123046875,-5.26696252822876,-6.705722808837891,-4.580175399780273
1683885704470483700,12.004483642578125,-5.107398986816406,-7.099099159240723,-4.645712375640869
1683885704487357000,12.02135693359375,-2.6399130821228027,-5.645808219909668,-4.760430335998535
1683885704504228400,12.038228271484375,-0.6818721294403076,-6.171704292297363,-1.8382532596588135
1683885704521101600,12.0551015625,-4.952236175537109,-8.136350631713867,4.003129005432129
1683885704537973000,12.071972900390625,-7.680891036987305,-6.212191581726074,7.061316967010498
1683885704554844200,12.08884423828125,-6.449878215789795,-1.2635364532470703,7.032411575317383
1683885704571720400,12.105720458984376,3.694124221801758,2.171797752380371,3.692469596862793
1683885704588591000,12.122591064453125,3.596130609512329,5.019275188446045,3.1540098190307617
1683885704605460200,12.139460205078125,2.6695096492767334,6.205531120300293,1.9707283973693848
1683885704622338800,12.1563388671875,2.419525623321533,6.738516807556152,1.274021863937378
1683885704639207400,12.17320751953125,3.237204074859619,4.189451217651367,2.1683003902435303
1683885704656080600,12.19008056640625,3.539642572402954,0.3026266098022461,4.099640369415283
1683885704672952300,12.206952392578126,3.4765613079071045,-1.81695556640625,5.638890743255615
1683885704689815000,12.22381494140625,3.6977834701538086,-1.3585233688354492,5.455427169799805
1683885704706694700,12.240694580078125,3.371293544769287,0.44553661346435547,3.756448984146118
1683885704723573200,12.2575732421875,4.099886417388916,1.1379070281982422,2.0344977378845215
1683885704740441900,12.27444189453125,3.1950860023498535,1.67525053024292,0.915320634841919
1683885704757314000,12.29131396484375,1.9149596691131592,2.0410003662109375,0.3421785831451416
1683885704774187300,12.308187255859375,0.9557825326919556,1.8533730506896973,0.09160757064819336
1683885704791060000,12.32506005859375,0.475583553314209,0.5729961395263672,0.29471397399902344
1683885704807932000,12.341931884765625,0.6373609304428101,-1.091843605041504,0.5081131458282471
1683885704824800300,12.35880029296875,-3.565854072570801,-2.1900339126586914,-0.24021148681640625
1683885704841680400,12.375680419921874,-6.585784912109375,-2.5186758041381836,-0.7946600914001465
1683885704858547200,12.392547119140625,0.776679277420044,-2.2102136611938477,-0.5368685722351074
1683885704875423200,12.40942333984375,2.1670525074005127,-1.5708913803100586,-1.676870346069336
1683885704892294100,12.426294189453126,1.6570017337799072,-0.7419700622558594,-3.111454963684082
1683885704909155000,12.443155029296875,-1.722266674041748,-0.6226348876953125,-4.51487922668457
1683885704926034200,12.4600341796875,-0.974653959274292,-2.023427963256836,-3.726883888244629
1683885704942910500,12.476910400390626,-1.335448980331421,-2.5055484771728516,-3.3076767921447754
1683885704959784000,12.493783935546874,-5.426804542541504,-1.8094472885131836,-3.2508959770202637
1683885704976655400,12.5106552734375,-4.08382511138916,-1.0565900802612305,-2.6177432537078857
1683885704993528600,12.527528564453124,-1.5745537281036377,-1.1462039947509766,-1.7890558242797852
1683885705010400000,12.54439990234375,0.0674746036529541,-1.0054559707641602,-1.2006397247314453
1683885705027273200,12.561273193359375,0.3268533945083618,-0.4895057678222656,-1.2156379222869873
1683885705044145000,12.578144775390625,0.04840445518493652,-0.2608909606933594,-0.9752025604248047
1683885705061018400,12.595018310546875,0.04282224178314209,-0.4940805435180664,-0.35868263244628906
1683885705077888000,12.611887939453124,-0.013231158256530762,-0.8135232925415039,0.2351217269897461
1683885705094763000,12.628762939453125,0.025698065757751465,-0.8249893188476562,0.5597748756408691
1683885705111636200,12.64563623046875,-0.11570173501968384,-0.42285728454589844,0.5580835342407227
1683885705128507600,12.662507568359375,-0.26569294929504395,0.27483654022216797,0.3809933662414551
1683885705145379300,12.67937939453125,-0.7547785043716431,0.7497072219848633,0.20634961128234863
1683885705162252500,12.69625244140625,-1.3235808610916138,0.46599578857421875,0.14396309852600098
1683885705179113500,12.713113525390625,-1.4886748790740967,0.03625774383544922,0.29235410690307617
1683885705195997700,12.729997802734376,-0.4298596978187561,-0.2518482208251953,0.5396652221679688
1683885705212868900,12.746868896484376,0.16581499576568604,-0.3052701950073242,0.6927671432495117
1683885705229742300,12.763742431640624,0.22024008631706238,0.01644611358642578,0.6156339645385742
1683885705246613500,12.780613525390624,0.6368792057037354,0.511744499206543,0.4872758388519287
1683885705263487000,12.797487060546874,2.2014706134796143,0.9847707748413086,0.27895402908325195
1683885705280347600,12.81434765625,2.7730801105499268,1.2811403274536133,-0.11602139472961426
1683885705297232100,12.831232177734375,2.7560884952545166,1.3323931694030762,-0.39548659324645996
1683885705314092500,12.848092529296874,2.2655694484710693,1.0351142883300781,-0.4073648452758789
1683885705330976800,12.864976806640625,1.5403783321380615,0.6701221466064453,-0.42418885231018066
1683885705347848000,12.881847900390625,0.8636091947555542,0.4210958480834961,-0.5852773189544678
1683885705364728600,12.898728515625,0.45499926805496216,0.11862754821777344,-0.8173058032989502
1683885705381595000,12.915594970703125,0.2805559039115906,-0.37320518493652344,-0.9397656917572021
1683885705398466300,12.93246630859375,0.1003350019454956,-0.7541017532348633,-1.0147151947021484
1683885705415334000,12.949333984375,-0.05853980779647827,-0.8466463088989258,-1.2258498668670654
1683885705432211000,12.9662109375,-1.7743775844573975,-0.6191253662109375,-1.855128526687622
1683885705449071600,12.983071533203125,-8.17021369934082,-1.4949712753295898,-2.9033708572387695
1683885705465945000,12.999945068359375,-3.256772518157959,-2.1191158294677734,-2.131103754043579
1683885705482826800,13.01682666015625,-3.403294563293457,-2.8953027725219727,-2.2708725929260254
1683885705499700500,13.033700439453124,-5.3655009269714355,-4.470677375793457,-1.9151372909545898
1683885705516574500,13.050574462890625,-5.41434907913208,-7.194333076477051,0.18737459182739258
1683885705533442600,13.067442626953126,-5.304838180541992,-7.561738967895508,1.6788439750671387
1683885705550316800,13.08431689453125,-8.141962051391602,-5.334724426269531,3.3631486892700195
1683885705567190000,13.10118994140625,-3.6821436882019043,-2.3944101333618164,2.7580504417419434
1683885705584061200,13.118061279296874,-1.345381259918213,-1.6141157150268555,2.2237844467163086
1683885705600934700,13.1349345703125,1.7639976739883423,-0.5048065185546875,2.2108511924743652
1683885705617806000,13.15180615234375,3.1818695068359375,2.3318076133728027,1.1659741401672363
1683885705634676700,13.1686767578125,2.358534812927246,3.449415683746338,0.6783323287963867
1683885705651554000,13.185553955078126,1.8340749740600586,3.9110360145568848,0.9314413070678711
1683885705668424400,13.202424560546875,3.5650219917297363,3.219792366027832,1.76005220413208
1683885705685295900,13.2192958984375,5.858315467834473,1.9550580978393555,2.0171971321105957
1683885705702169000,13.236169189453125,6.813490867614746,1.2222785949707031,1.753021001815796
1683885705719030000,13.253030029296875,5.795454978942871,0.21550846099853516,1.870192527770996
1683885705735914200,13.269914306640626,3.366424560546875,1.2223691940307617,1.5057008266448975
1683885705752785400,13.286785400390626,-1.0738751888275146,2.1895041465759277,0.14389324188232422
1683885705769656600,13.303656494140625,-5.414780616760254,1.2623076438903809,-0.7238438129425049
1683885705786532600,13.32053271484375,-3.920889377593994,0.12947940826416016,-0.959775447845459
1683885705803403500,13.337403564453124,-1.2875025272369385,0.3600130081176758,-1.318692922592163
1683885705820274700,13.354274658203124,-0.8950164318084717,0.8442955017089844,-1.3597207069396973
1683885705837148200,13.371148193359375,0.29122090339660645,1.0179576873779297,-0.6619086265563965
1683885705854019800,13.388019775390624,1.1650316715240479,1.4103317260742188,-0.10069751739501953
1683885705870892800,13.404892822265625,1.291905403137207,1.7118101119995117,0.1335432529449463
1683885705887764500,13.421764404296875,0.7032228708267212,1.7231392860412598,0.20576047897338867
1683885705904638000,13.438637939453125,-0.13883566856384277,0.7782382965087891,0.6513712406158447
1683885705921508900,13.4555087890625,-0.5516916513442993,-0.15943050384521484,1.060605525970459
1683885705938379800,13.4723798828125,-0.7482590079307556,-0.27239131927490234,0.7050566673278809
1683885705955256600,13.489256591796876,-1.7987743616104126,-0.6606521606445312,0.1346132755279541
1683885705972116700,13.50611669921875,-2.7966456413269043,-1.2248096466064453,-0.834511399269104
1683885705988992000,13.522991943359376,-2.2185370922088623,-1.7315740585327148,-1.8622909784317017
1683885706005875000,13.539875,-0.6961908340454102,-2.0030317306518555,-2.267268657684326
1683885706022743600,13.55674365234375,-1.2992967367172241,-2.40291690826416,-1.930238127708435
1683885706039619000,13.573619140625,-2.50587797164917,-3.1667404174804688,-1.2700060606002808
1683885706056486100,13.590486083984375,-2.0876073837280273,-2.3510055541992188,-0.10608792304992676
1683885706073361400,13.607361328125,-1.5211879014968872,-0.8586292266845703,1.1278767585754395
1683885706090230800,13.624230712890625,-1.3231475353240967,0.0053195953369140625,1.7233881950378418
1683885706107109400,13.641109375,-0.78663569688797,-0.014229774475097656,1.6379326581954956
1683885706123977700,13.657977783203124,0.3126975893974304,-0.28856468200683594,1.5581656694412231
1683885706140851200,13.674851318359375,-0.039527907967567444,0.06409358978271484,1.7116159200668335
1683885706157722600,13.69172265625,-1.9423677921295166,0.6628589630126953,2.2882299423217773
1683885706174595800,13.708595947265625,-2.6608188152313232,1.3929481506347656,3.0808467864990234
1683885706191462700,13.725462646484376,-3.411054849624634,2.068361282348633,3.761810541152954
1683885706208341200,13.74234130859375,-4.235441207885742,2.5678658485412598,4.070442199707031
1683885706225212400,13.75921240234375,-3.9206948280334473,2.840681552886963,4.088202476501465
1683885706242085600,13.776085693359375,-2.172783374786377,2.792729377746582,3.5599069595336914
1683885706258946300,13.7929462890625,-0.6859049797058105,2.1601133346557617,3.0024826526641846
1683885706275830300,13.809830322265626,0.07889841496944427,1.3176422119140625,2.698415756225586
1683885706292701400,13.826701416015625,0.09959842264652252,0.8491573333740234,2.51479172706604
1683885706309575200,13.8435751953125,-0.5284410715103149,0.7214746475219727,2.248145341873169
1683885706326446800,13.86044677734375,-1.031292200088501,0.5723381042480469,2.1913554668426514
1683885706343320000,13.877320068359374,-0.9777910709381104,0.4703807830810547,2.2970385551452637
1683885706360191200,13.894191162109376,-0.7227563858032227,0.35638999938964844,2.494490146636963
1683885706377065200,13.911065185546875,-0.5086355805397034,0.02552509307861328,2.7457098960876465
1683885706393936000,13.927935791015624,-0.47429734468460083,-0.2180461883544922,2.7787301540374756
1683885706410801700,13.9448017578125,-0.3702220916748047,-0.3421964645385742,2.488821029663086
1683885706427670300,13.961670166015624,0.09535372257232666,-0.5397844314575195,1.9105615615844727
1683885706444551700,13.9785517578125,0.7072223424911499,-0.7564420700073242,1.1522085666656494
1683885706461428500,13.995428466796875,0.6463114023208618,-0.8593788146972656,0.5271203517913818
1683885706478299100,14.012299072265625,0.009086132049560547,-1.1461553573608398,0.1233210563659668
1683885706495170600,14.029170654296875,0.11853909492492676,-1.5803966522216797,-0.3100106716156006
1683885706512043800,14.046043701171875,1.0279295444488525,-1.8728551864624023,-0.6885309219360352
1683885706528913400,14.062913330078125,1.5102167129516602,-1.5097894668579102,-1.315758466720581
1683885706545786600,14.07978662109375,1.7451688051223755,-0.8889541625976562,-1.9156317710876465
1683885706562660000,14.09666015625,1.5529091358184814,-0.3372535705566406,-2.198917865753174
1683885706579533300,14.113533203125,0.6584721803665161,0.02325725555419922,-2.107252359390259
1683885706596394200,14.130394287109375,-0.3997492790222168,0.1637105941772461,-1.46006441116333
1683885706613278500,14.147278564453124,-0.48587918281555176,0.13391971588134766,-0.5380959510803223
1683885706630149600,14.164149658203126,0.22096562385559082,0.37174272537231445,0.07706975936889648
1683885706647012600,14.1810126953125,1.097000002861023,1.1368498802185059,0.11891460418701172
1683885706663894300,14.197894287109374,1.9592233896255493,1.8182659149169922,-0.49625110626220703
1683885706680767700,14.214767822265625,1.4281567335128784,1.3901357650756836,-2.48954176902771
1683885706697627100,14.231627197265626,1.5162469148635864,0.14735889434814453,-3.6028389930725098
1683885706714514200,14.24851416015625,1.4657704830169678,-1.1490144729614258,-3.868654251098633
1683885706731382500,14.265382568359374,2.21443247795105,-1.7447776794433594,-3.5522546768188477
1683885706748246800,14.282246826171875,1.9376327991485596,-1.3418779373168945,-3.158902645111084
1683885706765128200,14.299128173828125,-0.10962057113647461,-2.046276092529297,-2.3724422454833984
1683885706782002400,14.31600244140625,-2.240849494934082,-5.753923416137695,-1.3536596298217773
1683885706798873300,14.332873291015625,-3.6860909461975098,-8.555802345275879,-1.274489402770996
1683885706815747000,14.3497470703125,-3.2942891120910645,-5.008665084838867,-1.9238801002502441
1683885706832618200,14.3666181640625,2.2658839225769043,0.3147258758544922,-1.2293410301208496
1683885706849491700,14.38349169921875,3.162616729736328,2.5545754432678223,-0.08485841751098633
1683885706866363000,14.40036279296875,3.4712276458740234,2.249566078186035,1.1594595909118652
1683885706883236000,14.417236083984376,3.3092150688171387,1.521235466003418,1.4730803966522217
1683885706900106800,14.434106689453126,3.0195555686950684,1.4081645011901855,1.4662232398986816
1683885706916982500,14.450982421875,2.5930795669555664,0.8549985885620117,1.9105093479156494
1683885706933852700,14.467852783203124,2.146005153656006,0.2867584228515625,2.1169118881225586
1683885706950727200,14.48472705078125,1.8009737730026245,0.7462120056152344,1.7868483066558838
1683885706967596300,14.50159619140625,1.5954034328460693,1.2068510055541992,1.4779212474822998
1683885706984470500,14.518470458984375,1.4812800884246826,0.9232587814331055,1.247326374053955
1683885707001342000,14.535342041015625,1.6204023361206055,0.4303760528564453,1.0079855918884277
1683885707018215700,14.552215576171875,1.3954070806503296,-0.09265804290771484,0.9177474975585938
1683885707035086800,14.5690869140625,1.2074939012527466,-0.4140434265136719,0.7900087833404541
1683885707051960000,14.5859599609375,1.2041603326797485,-0.524932861328125,0.7104091644287109
1683885707068832300,14.602832275390625,1.4015164375305176,-0.13259029388427734,0.44878721237182617
1683885707085704700,14.61970458984375,1.5012156963348389,0.40831565856933594,0.13240480422973633
1683885707102576000,14.636576171875,1.6282374858856201,0.5871944427490234,-0.03329801559448242
1683885707119449900,14.653449951171876,1.6890265941619873,0.2711296081542969,0.0016205310821533203
1683885707136309200,14.670309326171875,1.5435643196105957,-0.3278036117553711,0.22624874114990234
1683885707153184300,14.687184326171876,1.4028688669204712,-0.6366596221923828,0.3430325984954834
1683885707170055700,14.7040556640625,1.3727679252624512,-0.6386966705322266,0.3196902275085449
1683885707186932000,14.720931884765625,1.3605185747146606,-0.6046380996704102,0.24574661254882812
1683885707203801900,14.7378017578125,1.323459506034851,-0.5333080291748047,0.23041439056396484
1683885707220680000,14.754679931640625,1.2537095546722412,-0.09068679809570312,0.12653303146362305
1683885707237547800,14.7715478515625,1.4934513568878174,0.16633129119873047,-0.010872364044189453
1683885707254423800,14.788423828125,2.0886547565460205,0.056575775146484375,-0.1654515266418457
1683885707271291100,14.805291015625,2.486574411392212,-0.21881675720214844,-0.27817463874816895
1683885707288169700,14.822169677734376,2.473623275756836,-0.4196815490722656,-0.3909125328063965
1683885707305040000,14.839039794921876,2.2708511352539062,-0.41115474700927734,-0.553544282913208
1683885707321909800,14.85590966796875,2.1639597415924072,-0.3950948715209961,-0.8166530132293701
1683885707338780400,14.872780517578125,2.220393180847168,-0.42289161682128906,-1.0673153400421143
1683885707355652400,14.88965234375,2.5057902336120605,-0.5252285003662109,-1.3469469547271729
1683885707372527900,14.90652783203125,2.805245876312256,-0.7717647552490234,-1.5253567695617676
1683885707389397000,14.92339697265625,2.9580018520355225,-1.0377912521362305,-1.6714801788330078
1683885707406272500,14.9402724609375,3.0190529823303223,-1.249837875366211,-1.919325590133667
1683885707423144200,14.957144287109376,3.1080379486083984,-1.2243528366088867,-2.3754451274871826
1683885707440016100,14.97401611328125,2.958390474319458,-1.077010154724121,-2.921103000640869
1683885707456886300,14.99088623046875,2.441451072692871,-1.1126680374145508,-2.871875047683716
1683885707473760000,15.007760009765626,1.8805217742919922,-1.3165349960327148,-2.4268958568573
1683885707490635000,15.024635009765625,1.5030945539474487,-1.7563953399658203,-1.8458828926086426
1683885707507507500,15.041507568359375,1.0699396133422852,-1.740692138671875,-1.3316445350646973
1683885707524381700,15.058381591796875,0.7145640850067139,-1.1517829895019531,-1.2481868267059326
1683885707541256700,15.075256591796874,0.2905486524105072,-0.42511558532714844,-1.3380589485168457
1683885707558126600,15.092126708984376,0.032232195138931274,-0.273284912109375,-1.271803617477417
1683885707574996200,15.108996337890625,-0.32932358980178833,-0.4925680160522461,-1.1305687427520752
1683885707591867000,15.125866943359375,-2.7724859714508057,-0.7379875183105469,-1.0105035305023193
1683885707608739300,15.1427392578125,-4.82876443862915,-0.5802631378173828,-0.7838869094848633
1683885707625613800,15.15961376953125,-1.8382697105407715,0.1322164535522461,-0.9377403259277344
1683885707642488800,15.17648876953125,-0.18014264106750488,0.2122335433959961,-0.9177463054656982
1683885707659358000,15.19335791015625,0.3627055883407593,0.79449462890625,-1.1923866271972656
1683885707676234200,15.210234130859375,0.3381218910217285,1.630497932434082,-1.6700239181518555
1683885707693104400,15.2271044921875,0.18701767921447754,2.0640392303466797,-1.9546091556549072
1683885707709973800,15.243973876953126,-1.5340995788574219,1.9695744514465332,-1.9579291343688965
1683885707726849300,15.260849365234375,-4.1049652099609375,1.12058687210083,-1.5048346519470215
1683885707743722000,15.277721923828125,-1.6624699831008911,0.7381649017333984,-1.0647556781768799
1683885707760592000,15.294591796875,1.1697146892547607,-0.6153564453125,-0.4811272621154785
1683885707777465300,15.31146533203125,1.520881175994873,-2.850571632385254,0.6658177375793457
1683885707794334500,15.32833447265625,-2.4893975257873535,-3.6985654830932617,2.1171441078186035
1683885707811218400,15.345218505859375,-3.238036632537842,-1.5176324844360352,2.132770538330078
1683885707828089000,15.362089111328125,1.0763885974884033,0.3540763854980469,1.5175395011901855
1683885707844958700,15.378958740234374,1.480269432067871,1.1651344299316406,1.7746219635009766
1683885707861837300,15.39583740234375,0.19782614707946777,0.9814543724060059,2.6663379669189453
1683885707878694400,15.4126943359375,0.4692082405090332,1.4779562950134277,3.6437392234802246
1683885707895579400,15.429579345703125,1.3420060873031616,2.0424718856811523,3.5077219009399414
1683885707912450800,15.446450927734375,2.0312445163726807,3.1731619834899902,2.8024168014526367
1683885707929313500,15.4633134765625,2.436404228210449,4.415875434875488,2.0510640144348145
1683885707946195200,15.4801953125,2.7416834831237793,4.239877700805664,1.8346080780029297
1683885707963069000,15.49706884765625,2.550471305847168,3.6506247520446777,1.8906307220458984
1683885707979933000,15.513932861328126,2.0835232734680176,3.0985794067382812,2.0794715881347656
1683885707996813800,15.530813720703126,1.8092460632324219,2.511026382446289,2.360673427581787
1683885708013685000,15.54768505859375,1.968064546585083,1.8407273292541504,1.9098286628723145
1683885708030558500,15.564558349609374,3.003047466278076,1.0653300285339355,0.8641109466552734
1683885708047419100,15.581419189453126,4.0535807609558105,-0.18625926971435547,0.43859243392944336
1683885708064303000,15.59830322265625,3.361997604370117,-1.3876080513000488,0.056519508361816406
1683885708081174500,15.615174560546874,1.220703125,-2.5400619506835938,-0.3084578514099121
1683885708098048000,15.632048095703125,0.7105305194854736,-3.861037254333496,-0.35368776321411133
1683885708114916900,15.648916748046876,0.922174334526062,-4.509242534637451,0.19562005996704102
1683885708131795200,15.665795166015625,0.9485095143318176,-3.5299272537231445,0.6925616264343262
1683885708148663800,15.682663818359375,0.9220985174179077,-1.9922904968261719,0.8103737831115723
1683885708165537300,15.699537353515625,0.5088230967521667,-1.044482707977295,0.6325674057006836
1683885708182408400,15.716408447265625,-0.030549585819244385,-0.14770174026489258,0.5791401863098145
1683885708199282200,15.7332822265625,-0.9503780603408813,0.44814586639404297,1.0642929077148438
1683885708216153600,15.750153564453125,-1.635352611541748,1.2175664901733398,2.076411724090576
1683885708233026800,15.76702685546875,-2.910149335861206,1.619828701019287,2.5470361709594727
1683885708249898500,15.7838984375,-3.5892157554626465,1.729203701019287,1.6530299186706543
1683885708266772000,15.80077197265625,-3.1530675888061523,1.126237392425537,-0.6268062591552734
1683885708283640000,15.81764013671875,-3.0910372734069824,0.666506290435791,-3.0218963623046875
1683885708300519000,15.834518798828125,-2.264749765396118,-0.801518440246582,-4.125481605529785
1683885708317388000,15.851387939453126,-1.342393159866333,-2.4060611724853516,-4.4058942794799805
1683885708334261000,15.868260986328124,-0.05816173553466797,-3.5207414627075195,-4.5669474601745605
1683885708351132700,15.885132568359374,0.29516053199768066,-2.933354377746582,-4.795787811279297
1683885708368006100,15.902006103515625,1.0124982595443726,-1.0674614906311035,-5.330562591552734
1683885708384874500,15.91887451171875,1.877860426902771,1.1557626724243164,-5.73715353012085
1683885708401753000,15.935753173828125,2.8056397438049316,2.433577299118042,-5.899677276611328
1683885708418622000,15.9526220703125,3.1154775619506836,3.1742494106292725,-5.598167896270752
1683885708435495400,15.969495361328125,2.87861967086792,3.1528754234313965,-4.559430122375488
1683885708452364300,15.9863642578125,2.296138286590576,2.3120217323303223,-2.7434825897216797
1683885708469232000,16.003232177734375,0.5912697315216064,0.47027111053466797,-0.6572585105895996
1683885708486111500,16.020111572265623,-2.33150053024292,-1.4918537139892578,0.8811678886413574
1683885708502982400,16.036982421875,-7.316183090209961,-3.3754372596740723,3.433926582336426
1683885708519859000,16.05385888671875,-6.5058393478393555,-4.203115940093994,6.843103885650635
1683885708536722400,16.070722412109376,-2.5937302112579346,-2.8074212074279785,8.426319122314453
1683885708553598700,16.0875986328125,2.974618911743164,0.04643583297729492,10.624918937683105
1683885708570473700,16.1044736328125,5.747122764587402,4.075393199920654,10.354194641113281
1683885708587345700,16.121345703125,3.004028797149658,6.413405895233154,7.5240349769592285
1683885708604216800,16.138216796875,2.317901611328125,5.096380233764648,1.0441317558288574
1683885708621093000,16.155093017578125,1.192307472229004,-0.09648990631103516,-4.669586181640625
1683885708637963800,16.1719638671875,2.886526584625244,-4.808225631713867,-5.702516078948975
1683885708654832600,16.18883251953125,2.524136543273926,-5.973996639251709,-5.535118103027344
1683885708671711500,16.20571142578125,0.16898441314697266,-3.582242965698242,-4.896880149841309
1683885708688580400,16.222580322265625,-1.7885322570800781,-1.1920833587646484,-2.1443276405334473
1683885708705451000,16.239450927734374,-1.5918211936950684,0.276611328125,2.732314109802246
1683885708722327600,16.25632763671875,0.9535508155822754,0.04181861877441406,7.145397186279297
1683885708739186000,16.27318603515625,3.8747968673706055,0.19868850708007812,8.817630767822266
1683885708756062200,16.290062255859375,2.802225112915039,2.011303424835205,6.883930206298828
1683885708772951300,16.306951416015625,1.3636102676391602,2.842343330383301,4.034358978271484
1683885708789814300,16.323814208984373,-0.32537174224853516,0.4781002998352051,0.8339085578918457
1683885708806687700,16.340687744140624,-2.3385469913482666,-1.3620967864990234,-1.7990622520446777
1683885708823559200,16.35755908203125,-2.1792144775390625,-2.672609329223633,-4.06096076965332
1683885708840432000,16.37443212890625,-0.28154993057250977,-3.456820011138916,-4.703152656555176
1683885708857303600,16.391303466796874,0.41443586349487305,-3.1644296646118164,-4.51359748840332
1683885708874177000,16.408177001953124,-0.0759282112121582,-2.4059414863586426,-3.9372332096099854
1683885708891054000,16.42505419921875,-0.801842212677002,-1.7323012351989746,-2.64687180519104
1683885708907922000,16.441921875,-1.288285732269287,-1.4327192306518555,-0.4943666458129883
1683885708924790800,16.458790771484374,-0.9191923141479492,-1.3684163093566895,2.0226874351501465
1683885708941669000,16.475669189453125,0.36832571029663086,-1.2717204093933105,3.054971694946289
1683885708958538000,16.4925380859375,0.9223613739013672,-0.6309075355529785,2.801039695739746
1683885708975410000,16.509409912109376,1.0689787864685059,-0.24638986587524414,2.279480457305908
1683885708992273200,16.526273193359376,0.4970822334289551,-0.5211238861083984,1.7791028022766113
1683885709009148200,16.543148193359375,-0.47132015228271484,-0.6706314086914062,1.2928643226623535
1683885709026027500,16.560027587890627,-0.9374442100524902,0.3317756652832031,-0.03261709213256836
1683885709042900700,16.576900634765625,-1.2316062450408936,1.6468584537506104,-1.3505373001098633
1683885709059772200,16.593772216796875,-1.5984840393066406,2.8864142894744873,-2.5733232498168945
1683885709076645600,16.610645751953125,-2.244197130203247,3.837482452392578,-3.6484949588775635
1683885709093516800,16.627516845703123,-2.5496573448181152,4.291522026062012,-4.225543975830078
1683885709110379800,16.6443798828125,-2.837378978729248,4.472055435180664,-4.677617073059082
1683885709127262000,16.661261962890624,-2.5381052494049072,4.3014349937438965,-4.645273208618164
1683885709144135200,16.67813525390625,-1.3390390872955322,3.9395077228546143,-4.045083045959473
1683885709161002500,16.69500244140625,2.420346260070801,5.0963826179504395,-2.505793571472168
1683885709177879000,16.711879150390626,6.536175727844238,4.428491115570068,-0.33349609375
1683885709194752500,16.72875244140625,8.833525657653809,4.681236743927002,1.0724315643310547
1683885709211625200,16.745625244140626,8.522844314575195,4.54733943939209,0.7225198745727539
1683885709228491300,16.7624912109375,6.370114803314209,3.5599443912506104,-1.5048961639404297
1683885709245373700,16.779373779296876,5.010899543762207,1.5679140090942383,-2.2603673934936523
1683885709262245600,16.79624560546875,3.0113115310668945,-0.5074677467346191,-1.5379385948181152
1683885709279104300,16.813104248046876,1.802428960800171,-2.393141746520996,-0.10628986358642578
1683885709295985700,16.829985595703125,1.7590274810791016,-3.8332912921905518,1.7027902603149414
1683885709312858600,16.846858642578123,1.509962797164917,-5.222111701965332,2.549589157104492
1683885709329730300,16.863730224609377,1.4426965713500977,-6.023741722106934,2.67604923248291
1683885709346603500,16.880603515625,0.9882709980010986,-5.993527889251709,2.595931053161621
1683885709363474700,16.897474609375,-0.40515995025634766,-4.334796905517578,1.2885398864746094
1683885709380348200,16.91434814453125,-1.6757893562316895,-2.4784836769104004,0.11075878143310547
1683885709397219600,16.931219482421874,-2.7905609607696533,-1.4891571998596191,-0.20232248306274414
1683885709414090200,16.94809033203125,-3.206160306930542,-1.0574100017547607,0.3887162208557129
1683885709430966500,16.964966552734374,-3.452296018600464,-0.930628776550293,1.295224666595459
1683885709447837400,16.98183740234375,-3.8703203201293945,-1.075629711151123,2.0905494689941406
1683885709464709000,16.998709228515626,-3.21747088432312,-0.8253698348999023,2.6370058059692383
1683885709481582000,17.01558203125,-1.4542503356933594,0.16634106636047363,3.1557111740112305
1683885709498453800,17.032453857421874,-0.01939678192138672,1.0250368118286133,3.5002670288085938
1683885709515316700,17.049316650390626,0.633479118347168,1.980023980140686,3.7419819831848145
1683885709532198100,17.0661982421875,1.0114927291870117,3.0252883434295654,2.908143997192383
1683885709549061600,17.0830615234375,1.6815967559814453,4.091071128845215,1.1952099800109863
1683885709565943000,17.099943115234375,1.9693188667297363,4.160951137542725,-0.17797231674194336
1683885709582816300,17.116816162109377,0.6912379264831543,2.458601951599121,-0.22964906692504883
1683885709599688000,17.13368798828125,0.8254609107971191,0.18398833274841309,0.9286923408508301
1683885709616561200,17.15056103515625,2.165348529815674,-1.4750308990478516,1.8758716583251953
1683885709633432800,17.167432861328123,2.2512550354003906,-2.2484896183013916,1.7132000923156738
1683885709650306000,17.18430615234375,0.9624276161193848,-1.7796666622161865,0.26139163970947266
1683885709667177200,17.20117724609375,0.6281552314758301,-1.0364658832550049,-0.9245662689208984
1683885709684050400,17.218050537109374,0.16207408905029297,-0.7986328601837158,-1.1531119346618652
1683885709700921900,17.234921875,-0.09502983093261719,-0.7795219421386719,-1.1715779304504395
1683885709717795300,17.25179541015625,0.08051681518554688,-0.7385823726654053,-0.9796442985534668
1683885709734664200,17.268664306640623,0.4046516418457031,-0.4107167720794678,-0.5467233657836914
1683885709751543000,17.28554296875,0.40083932876586914,-0.10154509544372559,-0.2446293830871582
1683885709768411600,17.30241162109375,0.737431526184082,0.03192400932312012,0.11681556701660156
1683885709785282800,17.31928271484375,0.7560329437255859,-0.15504193305969238,0.7583346366882324
1683885709802158000,17.336157958984376,0.27175140380859375,-0.51926589012146,1.280393123626709
1683885709819019300,17.353019287109376,-0.12336492538452148,-0.5235638618469238,1.1276183128356934
1683885709835903000,17.369903076171877,-0.6700339317321777,-0.07243263721466064,0.5702509880065918
1683885709852772900,17.38677294921875,-0.5835285186767578,0.5714401006698608,0.14711666107177734
1683885709869645800,17.403645751953125,-0.18557357788085938,1.2597541809082031,0.04627037048339844
1683885709886521600,17.420521484375,0.1416015625,1.6768828630447388,0.10375356674194336
1683885709903388000,17.437387939453124,0.6389837265014648,1.3933002948760986,0.4339108467102051
1683885709920263700,17.454263671875,1.116330623626709,0.44775938987731934,0.8032221794128418
1683885709937121500,17.47112158203125,1.044633388519287,-0.6945220232009888,1.0066018104553223
1683885709954008600,17.488008544921875,0.7234983444213867,-1.2478739023208618,1.0511107444763184
1683885709970880000,17.5048798828125,0.22433757781982422,-0.9465290307998657,0.8588805198669434
1683885709987753500,17.52175341796875,0.5735077857971191,-0.11758637428283691,0.7537984848022461
1683885710004622000,17.5386220703125,0.5631484985351562,0.05353903770446777,0.5658149719238281
1683885710021500700,17.555500732421876,0.8333382606506348,-0.011469841003417969,0.2060379981994629
1683885710038369000,17.572369140625,0.4617919921875,-0.21863865852355957,0.22539901733398438
1683885710055242500,17.589242431640624,0.3475918769836426,-0.13082969188690186,0.4202399253845215
1683885710072114200,17.6061142578125,0.5148797035217285,0.10662627220153809,0.48621177673339844
1683885710088973800,17.622973876953125,0.740821361541748,0.12998008728027344,0.5961484909057617
1683885710105852700,17.639852783203125,0.8561124801635742,0.000699162483215332,0.5521788597106934
1683885710122732000,17.65673193359375,1.0614986419677734,-0.005182862281799316,0.346926212310791
1683885710139603500,17.673603515625,0.6336288452148438,0.2619072198867798,-0.0674295425415039
1683885710156476700,17.6904765625,0.9090003967285156,0.5730839967727661,-0.33844614028930664
1683885710173347800,17.707347900390626,0.8056011199951172,0.7000871896743774,-0.3008122444152832
1683885710190210800,17.7242109375,0.9975481033325195,0.5938334465026855,-0.00964212417602539
1683885710207093000,17.741093017578127,1.834895133972168,0.2513101100921631,0.2855033874511719
1683885710223966200,17.75796630859375,1.3412442207336426,0.014782190322875977,0.30214977264404297
1683885710240837600,17.774837646484375,0.29878950119018555,0.017879724502563477,0.37531566619873047
1683885710257709300,17.791709228515625,0.5390849113464355,0.11962699890136719,0.7028422355651855
1683885710274584000,17.808583984375,0.8301105499267578,0.2898554801940918,0.9273505210876465
1683885710291455000,17.825455078125,0.8044919967651367,0.11601376533508301,1.0204296112060547
1683885710308327200,17.8423271484375,0.1051788330078125,-0.2734990119934082,1.119859218597412
1683885710325200400,17.859200439453126,-0.4327549934387207,-0.1731264591217041,1.022383213043213
1683885710342060800,17.876060791015625,0.18628406524658203,0.5687284469604492,0.8708043098449707
1683885710358930200,17.89293017578125,1.0478887557983398,1.2228854894638062,0.7295923233032227
1683885710375816400,17.90981640625,1.3571577072143555,0.976051926612854,0.5978841781616211
1683885710392679000,17.926678955078124,1.634934425354004,0.06905317306518555,0.6533718109130859
1683885710409564200,17.943564208984377,1.1886310577392578,-0.48656320571899414,0.7941851615905762
1683885710426434600,17.9604345703125,0.7154655456542969,-0.4069023132324219,0.5779457092285156
1683885710443305500,17.977305419921876,0.6317391395568848,-0.05151176452636719,0.32574892044067383
1683885710460179200,17.99417919921875,0.7805595397949219,-0.03157687187194824,0.362302303314209
1683885710477050600,18.011050537109377,0.7354564666748047,-0.33570384979248047,0.48364686965942383
1683885710493913600,18.02791357421875,0.1838078498840332,-0.3359863758087158,0.18758249282836914
1683885710510792400,18.04479248046875,-0.6730270385742188,0.1211850643157959,-0.4656386375427246
1683885710527671000,18.061671142578124,-1.3728899955749512,0.7737982273101807,-1.3817081451416016
1683885710544537000,18.078537109375,-1.7967658042907715,1.4114327430725098,-2.3017520904541016
1683885710561416200,18.095416259765624,-2.29762601852417,1.9068214893341064,-2.977407932281494
1683885710578284800,18.112284912109374,-2.8340744972229004,2.2320804595947266,-3.3497164249420166
1683885710595157800,18.12915771484375,-3.053664207458496,2.5287599563598633,-3.311476230621338
1683885710612029200,18.146029296875,-3.1891658306121826,2.7663307189941406,-2.83471417427063
1683885710628891000,18.162890869140625,-2.485142707824707,2.332266092300415,-2.101144790649414
1683885710645776100,18.179776123046874,-1.4089288711547852,1.7130990028381348,-1.6943612098693848
1683885710662647300,18.196647216796876,-1.7725019454956055,1.5982847213745117,-1.7453203201293945
1683885710679505400,18.21350537109375,-2.677618980407715,1.6953988075256348,-1.9417438507080078
1683885710696381400,18.23038134765625,-2.7001819610595703,1.6980929374694824,-1.960963249206543
1683885710713255200,18.247255126953124,-1.8106193542480469,1.6277660131454468,-1.7619810104370117
1683885710730128100,18.264128173828126,-0.656099796295166,1.4661884307861328,-1.5167593955993652
1683885710746998300,18.280998291015624,0.1363205909729004,0.9246833324432373,-1.5011563301086426
1683885710763870700,18.29787060546875,0.6740961074829102,-0.03609967231750488,-1.2284107208251953
1683885710780743700,18.31474365234375,1.0073189735412598,-0.9986355304718018,-0.8008337020874023
1683885710797619700,18.33161962890625,0.9723215103149414,-1.6826446056365967,-0.42894697189331055
1683885710814494000,18.348493896484374,0.5126733779907227,-2.1011977195739746,-0.11501312255859375
1683885710831358000,18.36535791015625,0.37987565994262695,-2.545647144317627,0.39184093475341797
1683885710848232700,18.382232666015625,0.6898422241210938,-2.669585943222046,0.8342447280883789
1683885710865105400,18.39910546875,0.6600532531738281,-2.202775001525879,1.0778417587280273
1683885710881977000,18.41597705078125,0.48529958724975586,-1.7236168384552002,1.3541531562805176
1683885710898850600,18.4328505859375,1.063389778137207,-1.2602851390838623,1.5337586402893066
1683885710915723500,18.4497236328125,1.5542078018188477,-0.4676072597503662,1.5117745399475098
1683885710932596700,18.4665966796875,1.2343621253967285,0.5148506164550781,1.2881054878234863
1683885710949467000,18.483466796875,0.8255882263183594,1.425437331199646,1.2365379333496094
1683885710966339600,18.500339599609376,0.8426809310913086,1.9416906833648682,1.1007957458496094
1683885710983211000,18.5172109375,0.8951458930969238,1.93808114528656,1.0110244750976562
1683885711000083500,18.53408349609375,0.7469134330749512,1.181978464126587,1.02870512008667
1683885711016956200,18.5509560546875,0.7819342613220215,0.41959989070892334,0.9699892997741699
1683885711033833500,18.56783349609375,0.8143892288208008,0.632462739944458,0.20665597915649414
1683885711050700000,18.584699951171874,0.33275413513183594,0.9649486541748047,-0.500068187713623
1683885711067579100,18.6015791015625,0.2965102195739746,0.4397165775299072,-0.38830995559692383
1683885711084452000,18.6184521484375,1.239335536956787,-0.5857044458389282,0.38680458068847656
1683885711101319000,18.63531884765625,1.874800682067871,-1.2500399351119995,1.0842995643615723
1683885711118187500,18.6521875,1.4181532859802246,-1.2140315771102905,1.230532169342041
1683885711135068200,18.669068115234374,0.9085392951965332,-0.6622052192687988,0.9773373603820801
1683885711151947000,18.685947021484374,1.04848051071167,-0.29339635372161865,0.7785167694091797
1683885711168817700,18.702817626953124,0.7644309997558594,-0.4418996572494507,1.0543184280395508
1683885711185689000,18.719689208984374,0.4908919334411621,-0.3240828514099121,1.1178631782531738
1683885711202562300,18.736562255859376,0.7128171920776367,0.21301841735839844,1.091914176940918
1683885711219433700,18.753433837890626,1.091160774230957,0.6379750967025757,1.2607731819152832
1683885711236296400,18.77029638671875,1.4300837516784668,0.7138599157333374,1.4222636222839355
1683885711253178600,18.7871787109375,1.590555191040039,0.36470723152160645,1.444777011871338
1683885711270051800,18.8040517578125,1.1043777465820312,-0.1813046932220459,1.0837697982788086
1683885711286923300,18.82092333984375,0.1951894760131836,-0.495682954788208,0.6164345741271973
1683885711303795500,18.83779541015625,-0.23212337493896484,-0.5833437442779541,0.7609090805053711
1683885711320669000,18.8546689453125,0.38523340225219727,-0.5132482051849365,1.079960823059082
1683885711337541000,18.871541015625,0.7952919006347656,0.01293039321899414,0.8971047401428223
1683885711354412500,18.88841259765625,0.7903366088867188,0.4538118839263916,0.5144920349121094
1683885711371286000,18.9052861328125,0.8749723434448242,0.5587308406829834,0.301363468170166
1683885711388157400,18.922157470703127,0.8046212196350098,0.35329198837280273,0.40558338165283203
1683885711405028000,18.939028076171876,0.7792539596557617,-0.0075075626373291016,0.6230564117431641
1683885711421904400,18.955904296875,0.8137164115905762,-0.13462209701538086,0.5601367950439453
1683885711438764500,18.9727646484375,0.47333240509033203,-0.1188962459564209,0.34050512313842773
1683885711455646500,18.989646484375,0.0749521255493164,-0.1914212703704834,0.11868524551391602
1683885711472520000,19.00652001953125,-0.3069887161254883,-0.2569084167480469,-0.18120718002319336
1683885711489380600,19.023380615234377,-0.7780232429504395,0.0137481689453125,-0.6704792976379395
1683885711506264800,19.040264892578126,-1.3404107093811035,0.6113824844360352,-1.2124810218811035
1683885711523134000,19.057134033203123,-1.452939510345459,1.1976432800292969,-1.5911712646484375
1683885711540011300,19.07401123046875,-1.3458819389343262,1.607888102531433,-2.036980628967285
1683885711556880400,19.09088037109375,-1.8056206703186035,1.9771640300750732,-2.6018519401550293
1683885711573753900,19.10775390625,-2.602999448776245,2.4216766357421875,-3.1013076305389404
1683885711590625300,19.124625244140624,-3.169323205947876,2.7980077266693115,-3.185509204864502
1683885711607498800,19.141498779296874,-2.7040774822235107,2.5389466285705566,-2.4491586685180664
1683885711624359200,19.158359130859374,-1.3505239486694336,1.95510995388031,-1.6689214706420898
1683885711641243100,19.1752431640625,-1.362696647644043,1.9072548151016235,-1.9037127494812012
1683885711658114800,19.19211474609375,-2.4598581790924072,2.0382461547851562,-2.5637717247009277
1683885711674987800,19.20898779296875,-2.7845051288604736,1.4932799339294434,-2.6532955169677734
1683885711691859200,19.225859130859376,-2.1373291015625,0.6117022037506104,-2.3583431243896484
1683885711708735000,19.24273486328125,-1.411008358001709,-0.06887006759643555,-2.177107334136963
1683885711725604600,19.2596044921875,-1.065659523010254,-0.5579929351806641,-2.001617431640625
1683885711742477000,19.27647705078125,-0.7971363067626953,-1.002431869506836,-1.6688332557678223
1683885711759347500,19.293347412109377,-0.12336587905883789,-1.518376350402832,-1.2636299133300781
1683885711776212200,19.310212158203125,0.7082781791687012,-1.8996005058288574,-0.8381714820861816
1683885711793093000,19.327093017578125,1.1912007331848145,-2.0003585815429688,-0.29489660263061523
1683885711809966600,19.343966552734376,1.4867901802062988,-1.8229148387908936,0.2499370574951172
1683885711826838000,19.360838134765626,1.9742088317871094,-1.527390956878662,0.8205122947692871
1683885711843711200,19.377711181640624,2.2111568450927734,-1.0211477279663086,1.232436180114746
1683885711860583000,19.3945830078125,2.176213264465332,-0.18038702011108398,1.2629075050354004
1683885711877454000,19.4114541015625,1.9792976379394531,0.5631811618804932,1.2444548606872559
1683885711894329300,19.428329345703126,1.758906364440918,0.8656140565872192,1.4686388969421387
1683885711911200500,19.445200439453124,1.4685602188110352,0.8118841648101807,1.8456635475158691
1683885711928072000,19.462072021484374,1.5720386505126953,0.9341388940811157,2.2050986289978027
1683885711944942800,19.47894287109375,1.428995132446289,0.8034968376159668,2.3322291374206543
1683885711961819100,19.495819091796875,0.9693851470947266,0.8845471143722534,2.154013156890869
1683885711978689800,19.512689697265625,1.593027114868164,0.5794295072555542,2.2060251235961914
1683885711995561200,19.529561279296875,0.6527986526489258,-0.013615965843200684,1.34541654586792
1683885712012434700,19.5464345703125,0.32794809341430664,-0.7399171590805054,0.7708516120910645
1683885712029295400,19.56329541015625,0.5180091857910156,-1.641685962677002,1.1051063537597656
1683885712046179000,19.580178955078125,0.8174405097961426,-1.594609260559082,1.5160956382751465
1683885712063050800,19.59705078125,1.0908122062683105,-0.515464186668396,1.202031135559082
1683885712079924000,19.613924072265625,0.9070563316345215,0.26897454261779785,0.9265756607055664
1683885712096795400,19.63079541015625,1.0269956588745117,0.5398021936416626,0.9869089126586914
1683885712113668900,19.6476689453125,1.2131009101867676,0.6519310474395752,1.09210205078125
1683885712130540000,19.6645400390625,1.0068612098693848,0.7559072971343994,1.2769560813903809
1683885712147413200,19.681413330078126,0.8113369941711426,0.7781486511230469,1.4226336479187012
1683885712164284400,19.698284423828124,0.7219605445861816,0.5891963243484497,1.4730892181396484
1683885712181158000,19.715157958984374,0.6219940185546875,0.2435765266418457,1.3500018119812012
1683885712198029300,19.732029296875,0.3365902900695801,0.06722259521484375,0.8627786636352539
1683885712214900200,19.748900146484374,-0.005524158477783203,0.051981449127197266,0.32012033462524414
1683885712231776500,19.765776611328125,0.03704690933227539,-0.01616048812866211,0.19219398498535156
1683885712248644600,19.78264453125,0.48555946350097656,-0.26245641708374023,0.524653434753418
1683885712265521200,19.799521240234377,0.8709392547607422,-0.42430639266967773,0.8403525352478027
1683885712282375700,19.816375732421875,0.8081793785095215,-0.45474791526794434,0.7563419342041016
1683885712299263200,19.83326318359375,0.4415760040283203,-0.2762284278869629,0.28458738327026367
1683885712316137000,19.850136962890623,0.1305832862854004,-0.07270455360412598,-0.1139373779296875
1683885712333008000,19.8670078125,0.03122711181640625,0.03725409507751465,-0.19573640823364258
1683885712349878800,19.883878662109375,0.1829056739807129,-0.011344194412231445,-0.0771188735961914
1683885712366755300,19.90075537109375,0.13098955154418945,-0.08563804626464844,-0.2012944221496582
1683885712383625700,19.917625732421875,-0.33709192276000977,-0.057100534439086914,-0.6823935508728027
1683885712400499700,19.934499755859374,-1.0264825820922852,0.18371176719665527,-1.4334454536437988
1683885712417368000,19.9513681640625,-1.7390117645263672,0.5931129455566406,-2.1853761672973633
1683885712434242000,19.968241943359374,-2.2230732440948486,1.0232048034667969,-2.6574440002441406
1683885712451115500,19.985115478515624,-2.319149971008301,1.2299187183380127,-2.736898422241211
1683885712467986700,20.001986572265626,-2.2285804748535156,1.2348623275756836,-2.524689197540283
1683885712484857600,20.018857666015624,-2.3964109420776367,1.5047143697738647,-2.4222397804260254
1683885712501733400,20.0357333984375,-2.465937614440918,2.144340753555298,-2.5342178344726562
1683885712518604500,20.0526044921875,-2.1321427822113037,2.595839738845825,-2.6127161979675293
1683885712535475700,20.069475830078126,-1.9540011882781982,2.7215611934661865,-2.4659152030944824
1683885712552349400,20.086349365234376,-1.9849011898040771,2.5686357021331787,-2.18965482711792
1683885712569210000,20.103210205078124,-1.9556355476379395,2.129337787628174,-1.897071361541748
1683885712586094000,20.120093994140625,-1.6357831954956055,1.5537902116775513,-1.797287940979004
1683885712602965200,20.13696533203125,-1.3168272972106934,0.867769718170166,-1.8532719612121582
1683885712619838500,20.15383837890625,-0.9952893257141113,-0.10728025436401367,-1.7047162055969238
1683885712636709600,20.170709716796875,-0.5742716789245605,-0.9278719425201416,-1.311511516571045
1683885712653583400,20.187583251953125,-0.09372663497924805,-1.351118564605713,-1.0155506134033203
1683885712670454500,20.20445458984375,0.20071029663085938,-1.6137125492095947,-0.6308479309082031
1683885712687328000,20.221327880859373,0.48357152938842773,-1.8318803310394287,-0.16291475296020508
1683885712704199200,20.23819921875,0.9119253158569336,-1.627948522567749,0.019192218780517578
1683885712721072600,20.25507275390625,1.0214729309082031,-1.023120403289795,0.12793302536010742
1683885712737943800,20.27194384765625,1.3398756980895996,-0.39504051208496094,0.25922107696533203
1683885712754814200,20.288814208984373,1.8348088264465332,0.17084074020385742,0.3276834487915039
1683885712771691300,20.305691162109376,2.1696605682373047,0.6094099283218384,0.5329594612121582
1683885712788561700,20.322561767578126,2.1695122718811035,0.626442551612854,1.1202640533447266
1683885712805433300,20.339433349609376,1.9441065788269043,-0.021698951721191406,1.978304386138916
1683885712822306300,20.356306396484374,1.7145795822143555,-0.4944610595703125,2.41392183303833
1683885712839177200,20.37317724609375,3.0068349838256836,0.17896699905395508,3.436671257019043
1683885712856040700,20.390040771484376,1.76377534866333,0.2938041687011719,3.566579818725586
1683885712872922000,20.406922119140624,-0.641390323638916,0.4293421506881714,1.8473644256591797
1683885712889797600,20.423797607421875,0.39057302474975586,0.12337541580200195,1.3881268501281738
1683885712906653400,20.4406533203125,0.8892850875854492,-0.22702360153198242,0.515291690826416
1683885712923541800,20.457541748046875,0.7288355827331543,-0.7750980854034424,0.3218803405761719
1683885712940411600,20.47441162109375,0.6766424179077148,-0.6296160221099854,0.5976157188415527
1683885712957284900,20.491284912109375,0.7517256736755371,-0.8083257675170898,0.8012995719909668
1683885712974156300,20.50815625,0.4226107597351074,-0.9841372966766357,1.1049795150756836
1683885712991029500,20.525029541015623,0.8926715850830078,-0.8978357315063477,1.2529048919677734
1683885713007909000,20.5419091796875,1.3899335861206055,-0.6428070068359375,1.3340392112731934
1683885713024759000,20.558759033203124,1.9622745513916016,0.016304373741149902,1.5865364074707031
1683885713041650200,20.575650146484374,1.6434764862060547,0.6730778217315674,1.680650234222412
1683885713058518800,20.592518798828124,1.2163286209106445,1.207625389099121,1.4907326698303223
1683885713075401700,20.609401611328124,1.1557722091674805,1.505133867263794,1.133826732635498
1683885713092263400,20.626263427734376,0.7324838638305664,1.285912036895752,0.8812136650085449
1683885713109124400,20.643124267578123,0.3326592445373535,0.6283857822418213,0.9611968994140625
1683885713126008300,20.66000830078125,0.4458041191101074,0.14170384407043457,0.894716739654541
1683885713142876200,20.676876220703125,0.35016393661499023,-0.03269219398498535,0.6564764976501465
1683885713159756000,20.693756103515625,0.07908248901367188,-0.11634635925292969,0.3403654098510742
1683885713176624000,20.7106240234375,0.10092020034790039,-0.34966444969177246,0.21790456771850586
1683885713193497600,20.72749755859375,0.3116016387939453,-0.5992937088012695,0.2880439758300781
1683885713210368500,20.744368408203126,0.4850478172302246,-0.6028008460998535,0.23375701904296875
1683885713227242000,20.761241943359376,0.5053720474243164,-0.3006110191345215,-0.0988616943359375
1683885713244113700,20.77811376953125,0.48748159408569336,-0.023369312286376953,-0.537320613861084
1683885713260986600,20.794986572265625,0.2087230682373047,-0.01350092887878418,-0.7911558151245117
1683885713277858300,20.8118583984375,-0.026060104370117188,-0.22261500358581543,-0.7939901351928711
1683885713294730500,20.82873046875,-0.1810436248779297,-0.41679930686950684,-0.7555255889892578
1683885713311603500,20.845603515625,-0.36243343353271484,-0.41045331954956055,-0.795166015625
1683885713328476000,20.862475830078125,-0.6281075477600098,-0.21853232383728027,-0.9942717552185059
1683885713345337000,20.879337158203125,-1.1075654029846191,0.1081380844116211,-1.4356327056884766
1683885713362220500,20.896220458984374,-1.7917509078979492,0.587122917175293,-1.9856266975402832
1683885713379081500,20.91308154296875,-2.4809062480926514,1.0472910404205322,-2.3471732139587402
1683885713395964700,20.929964599609374,-2.736546039581299,1.28812575340271,-2.313180923461914
1683885713412837400,20.94683740234375,-2.509875535964966,1.4167085886001587,-1.9900164604187012
1683885713429710000,20.9637099609375,-2.1707863807678223,1.9639170169830322,-1.8642802238464355
1683885713446581000,20.9805810546875,-1.872981071472168,2.7509355545043945,-1.9731426239013672
1683885713463454500,20.997454345703126,-1.6978034973144531,3.270862102508545,-1.934225082397461
1683885713480326000,21.014325927734376,-1.5813231468200684,3.213277816772461,-1.8093581199645996
1683885713497199400,21.031199462890626,-1.4829354286193848,2.6655726432800293,-1.562417984008789
1683885713514070500,21.048070556640624,-1.4328985214233398,1.9555647373199463,-1.5468111038208008
1683885713530944000,21.064944091796875,-1.3710870742797852,1.319817066192627,-1.8915987014770508
1683885713547815200,21.081815185546876,-1.094897747039795,0.4753739833831787,-2.094005584716797
1683885713564687000,21.09868701171875,-0.7882866859436035,-0.488649845123291,-1.8821563720703125
1683885713581565000,21.11556494140625,-0.5754299163818359,-1.1910285949707031,-1.4896087646484375
1683885713598433300,21.132433349609375,-0.2252345085144043,-1.5674004554748535,-1.2906098365783691
1683885713615311000,21.14931103515625,0.026607513427734375,-1.9649310111999512,-1.0517783164978027
1683885713632175400,21.16617529296875,0.22710704803466797,-2.49981689453125,-0.537010669708252
1683885713649041000,21.183041015625,0.5327787399291992,-2.547900438308716,0.006713390350341797
1683885713665922300,21.19992236328125,0.34320497512817383,-1.9604454040527344,0.496002197265625
1683885713682793200,21.216793212890625,0.6208930015563965,-1.383533239364624,1.245431900024414
1683885713699667500,21.23366748046875,1.5821199417114258,-0.7837803363800049,1.821563720703125
1683885713716538400,21.250538330078125,2.1651835441589355,0.23966991901397705,1.6368498802185059
1683885713733411800,21.267411865234376,1.82767915725708,1.3533775806427002,0.9670968055725098
1683885713750283000,21.284282958984374,1.2628889083862305,1.9348715543746948,0.8056659698486328
1683885713767156500,21.301156494140624,1.4217967987060547,2.176995038986206,1.4567980766296387
1683885713784027400,21.31802734375,5.032993316650391,2.310061454772949,3.7761521339416504
1683885713800900900,21.33490087890625,0.6126666069030762,0.22121703624725342,2.7949275970458984
1683885713817772300,21.351772216796874,1.0225825309753418,0.46931004524230957,1.8358807563781738
1683885713834645200,21.368645263671876,-0.4530677795410156,-0.5080306529998779,1.0545849800109863
