time,seconds_elapsed,z,y,x
1683885692588185000,0.12218505859375,1.6036739349365234,1.6746870279312134,1.1035280227661133
1683885692605072400,0.139072265625,1.4300355911254883,3.1696269512176514,1.8216001987457275
1683885692621950500,0.155950439453125,0.7228062748908997,5.473352432250977,2.473698854446411
1683885692638813000,0.17281298828125,0.7762570381164551,3.5434765815734863,2.8119654655456543
1683885692655672600,0.189672607421875,1.8090773820877075,1.5572482347488403,2.462244987487793
1683885692672559600,0.2065595703125,2.393064498901367,1.0908526182174683,1.8735237121582031
1683885692689419800,0.223419677734375,2.2884538173675537,1.2536481618881226,1.0894781351089478
1683885692706297600,0.240297607421875,1.7363845109939575,-0.03420845419168472,0.004428773187100887
1683885692723175000,0.2571748046875,0.7492262125015259,-1.8949040174484253,-1.5427402257919312
1683885692740035800,0.274035888671875,-0.20326541364192963,-2.515390396118164,-2.4136812686920166
1683885692756916500,0.29091650390625,-0.4366159439086914,-1.4622586965560913,-2.060448408126831
1683885692773786600,0.30778662109375,-0.1362229436635971,-0.37491855025291443,-0.9958630800247192
1683885692790663700,0.32466357421875,-0.12553280591964722,0.06520986557006836,-0.18341228365898132
1683885692807534300,0.341534423828125,-0.20051652193069458,0.24174992740154266,0.25824329257011414
1683885692824404700,0.35840478515625,-0.2996293902397156,0.5720753073692322,0.6782131195068359
1683885692841264600,0.3752646484375,-0.3202461004257202,0.9622654914855957,1.026253581047058
1683885692858151400,0.3921513671875,-0.25014930963516235,1.4830280542373657,1.1175779104232788
1683885692875022300,0.409022216796875,-0.14049901068210602,1.553277611732483,1.2064588069915771
1683885692891893200,0.425893310546875,-0.12003502249717712,1.4637858867645264,1.149037480354309
1683885692908755200,0.442755126953125,-0.19425514340400696,1.1189523935317993,0.9166033267974854
1683885692925637400,0.459637451171875,-0.17058411240577698,0.7050912380218506,0.6707300543785095
1683885692942510800,0.4765107421875,0.08200865983963013,0.5624541640281677,0.3501785099506378
1683885692959381500,0.493381591796875,0.15164729952812195,0.15653422474861145,-0.3081815242767334
1683885692976235500,0.510235595703125,0.023518312722444534,-0.7492262125015259,-0.9683741331100464
1683885692993125000,0.527125,-0.03405573591589928,-1.2808316946029663,-0.9477574229240417
1683885693009992400,0.543992431640625,0.07070764899253845,-1.0760390758514404,-0.3675881624221802
1683885693026869200,0.560869140625,0.13545936346054077,-0.6385068893432617,0.18295414745807648
1683885693043742200,0.5777421875,0.09208793938159943,0.13545936346054077,0.32528573274612427
1683885693060614000,0.59461376953125,0.0910189226269722,0.6522513628005981,0.1560760736465454
1683885693077487000,0.611487060546875,0.0633772686123848,0.3006984293460846,0.06994406878948212
1683885693094357500,0.628357421875,-0.0936150997877121,-0.43417248129844666,0.1586722433567047
1683885693111230200,0.645230224609375,-0.24892759323120117,-0.5229006409645081,0.33139440417289734
1683885693128101600,0.6621015625,-0.16264286637306213,-0.2373211532831192,0.5331326723098755
1683885693144962300,0.67896240234375,-0.1235474944114685,-0.10384709388017654,0.6907358765602112
1683885693161848600,0.6958486328125,-0.15653422474861145,-0.16325373947620392,0.631481945514679
1683885693178701800,0.712701904296875,-0.1713477075099945,-0.013286318629980087,0.43279802799224854
1683885693195587300,0.72958740234375,-0.1394299864768982,0.12553280591964722,0.2252565622329712
1683885693212466200,0.746466064453125,-0.10033461451530457,0.06154467165470123,0.05497787147760391
1683885693229324300,0.76332421875,-0.08506298810243607,0.12247848510742188,-0.10903944820165634
1683885693246206700,0.780206787109375,-0.2018909603357315,0.16081027686595917,-0.2021963894367218
1683885693263069700,0.797069580078125,-0.4938845634460449,0.09056077152490616,-0.08017606288194656
1683885693279952000,0.813951904296875,-0.6488916277885437,-0.07773260027170181,0.1547016203403473
1683885693296823000,0.830822998046875,-0.6317873597145081,0.26740625500679016,0.41828998923301697
1683885693313695000,0.847695068359375,-0.42989641427993774,0.935081958770752,0.493731826543808
1683885693330548700,0.864548828125,-0.25854870676994324,1.006400465965271,0.3747658133506775
1683885693347437300,0.881437255859375,-0.32009339332580566,0.5125159621238708,0.2571742534637451
1683885693364313600,0.898313720703125,-0.46471574902534485,-0.014049900695681572,0.2968805134296417
1683885693381181400,0.915181396484375,-0.5609270334243774,-0.22937989234924316,0.49098294973373413
1683885693398049300,0.93204931640625,-0.5658139586448669,-0.18066339194774628,0.7145596146583557
1683885693414923500,0.948923583984375,-0.46639561653137207,-0.08735372871160507,0.8297077417373657
1683885693431801600,0.965801513671875,-0.35934147238731384,-0.054825156927108765,0.7420485615730286
1683885693448661000,0.982660888671875,-0.33719760179519653,-0.29565876722335815,0.49586987495422363
1683885693465543000,0.99954296875,-0.4714352488517761,-1.0334312915802002,0.2551889419555664
1683885693482417000,1.0164169921875,-0.6507241725921631,-1.6739234924316406,-0.010079276748001575
1683885693499276500,1.033276611328125,-0.6151412725448608,-1.8251125812530518,-0.12110403180122375
1683885693516160000,1.050159912109375,-0.4657847583293915,-1.7461583614349365,-0.01542434748262167
1683885693533031400,1.067031494140625,-0.27809640765190125,-1.557706356048584,0.17638733983039856
1683885693549888500,1.083888427734375,-0.14126259088516235,-1.327257513999939,0.1385136991739273
1683885693566775300,1.100775390625,-0.08536841720342636,-1.479668378829956,-0.02626720629632473
1683885693583637500,1.117637451171875,-0.11438451707363129,-1.8913915157318115,-0.24083362519741058
1683885693600519700,1.134519775390625,-0.16233743727207184,-2.043955087661743,-0.5375614166259766
1683885693617382700,1.151382568359375,-0.045204028487205505,-1.9532415866851807,-0.7370089292526245
1683885693634263800,1.168263916015625,0.2145664244890213,-1.7253888845443726,-0.7757988572120667
1683885693651120600,1.18512060546875,0.26862800121307373,-1.474017858505249,-0.6392704844474792
1683885693668007700,1.202007568359375,0.32589662075042725,-1.0920743942260742,-0.43737950921058655
1683885693684879000,1.218879150390625,0.38606682419776917,-0.45524731278419495,-0.1290452778339386
1683885693701756700,1.235756591796875,0.36560285091400146,0.15653422474861145,0.2148718535900116
1683885693718622700,1.252622802734375,0.3764457106590271,0.3862195611000061,0.3597996234893799
1683885693735494100,1.269494140625,0.42302417755126953,0.346818745136261,0.32039880752563477
1683885693752372000,1.2863720703125,0.4853324294090271,0.2554943859577179,0.2174680233001709
1683885693769230000,1.30322998046875,0.5002986192703247,0.30085113644599915,0.27977627515792847
1683885693786108200,1.320108154296875,0.4944954216480255,0.6032294034957886,0.4521929919719696
1683885693802984400,1.336984375,0.44806966185569763,1.056796908378601,0.523511528968811
1683885693819847700,1.35384765625,0.327271044254303,1.4025466442108154,0.4888449013233185
1683885693836728800,1.370728759765625,0.28817567229270935,1.5375478267669678,0.5279402732849121
1683885693853601300,1.387601318359375,0.33139440417289734,1.5039502382278442,0.6212499737739563
1683885693870473000,1.404472900390625,0.3266601860523224,1.477835774421692,0.6644686460494995
1683885693887346700,1.4213466796875,0.33307427167892456,1.2150110006332397,0.6632469296455383
1683885693904206600,1.43820654296875,0.3764457106590271,0.95462965965271,0.6209444999694824
1683885693921089500,1.455089599609375,0.4363104999065399,1.0879509449005127,0.6276640295982361
1683885693937944000,1.471944091796875,0.5377141237258911,1.2421945333480835,0.7047857642173767
1683885693954832100,1.48883203125,0.6592763066291809,1.1287262439727783,0.5564982295036316
1683885693971708200,1.505708251953125,0.7823656797409058,0.8329147696495056,0.2719877362251282
1683885693988575500,1.522575439453125,0.9065240025520325,0.6458373069763184,-0.04352414980530739
1683885694005452500,1.53945263671875,0.95462965965271,0.5818491578102112,-0.1866193264722824
1683885694022323200,1.5563232421875,1.002277135848999,0.8852964639663696,-0.1699732542037964
1683885694039193900,1.57319384765625,1.1305588483810425,1.520138144493103,-0.14966198801994324
1683885694056064000,1.59006396484375,1.0668761730194092,1.7188221216201782,-0.3481931984424591
1683885694072938000,1.60693798828125,0.9854783415794373,1.3655892610549927,-0.6142250299453735
1683885694089814500,1.623814453125,1.0390818119049072,0.6954700946807861,-0.7139487266540527
1683885694106679800,1.6406796875,0.9836457371711731,-0.0029016099870204926,-0.7093672752380371
1683885694123557400,1.657557373046875,0.8032878041267395,-0.31123584508895874,-0.6090326309204102
1683885694140426500,1.674426513671875,0.816726803779602,0.4236350357532501,-0.3452915847301483
1683885694157300000,1.691300048828125,0.917672336101532,1.3492486476898193,-0.044135015457868576
1683885694174171000,1.7081708984375,0.8222246170043945,1.3379476070404053,-0.13225232064723969
1683885694191043300,1.725043212890625,0.6530149579048157,0.6611089110374451,-0.6565274000167847
1683885694207915000,1.7419150390625,0.5821545720100403,-0.22418753802776337,-1.1896600723266602
1683885694224786200,1.7587861328125,0.6464481353759766,-0.9259189963340759,-1.4046846628189087
1683885694241661400,1.775661376953125,0.6206390857696533,-0.9986119866371155,-1.3006848096847534
1683885694258521300,1.792521240234375,0.5459607839584351,-0.5884159207344055,-0.9645562171936035
1683885694275404500,1.809404541015625,0.4334088861942291,-0.12553280591964722,-0.5322163701057434
1683885694292278300,1.8262783203125,0.3156646192073822,0.06017022579908371,-0.2509129047393799
1683885694309134800,1.843134765625,0.2551889419555664,-0.004734205547720194,-0.2942843437194824
1683885694326022100,1.860022216796875,0.18936823308467865,-0.3455969989299774,-0.5786421298980713
1683885694342888200,1.87688818359375,-0.009621127508580685,-0.684474527835846,-0.8988882303237915
1683885694359768800,1.893768798828125,-0.18509216606616974,-0.671493649482727,-1.0239628553390503
1683885694376632600,1.910632568359375,-0.38606682419776917,-0.26053401827812195,-0.9743300676345825
1683885694393511700,1.92751171875,-0.5830708742141724,0.3052799105644226,-0.8100073337554932
1683885694410369500,1.94436962890625,-0.45631635189056396,0.6281222105026245,-0.40072759985923767
1683885694427253500,1.96125341796875,-0.44104471802711487,0.4789183437824249,0.04596760869026184
1683885694444124200,1.978124267578125,-0.7426594495773315,0.09285151958465576,0.09636399149894714
1683885694460996900,1.994996826171875,-1.1740829944610596,-0.1843285858631134,-0.11148291081190109
1683885694477868800,2.011868896484375,-1.3903292417526245,0.027947084978222847,-0.3286454975605011
1683885694494745600,2.02874560546875,-1.4025466442108154,0.47448956966400146,-0.5044219493865967
1683885694511609300,2.045609375,-1.4934128522872925,0.802524209022522,-0.6476698517799377
1683885694528485400,2.0624853515625,-1.7382169961929321,1.19912850856781,-0.7139487266540527
1683885694545357000,2.079357177734375,-2.0949623584747314,1.8025106191635132,-0.5598580241203308
1683885694562230800,2.096230712890625,-2.43949031829834,2.604729413986206,-0.12308934330940247
1683885694579090700,2.113090576171875,-2.82265567779541,3.807523012161255,0.735634446144104
1683885694595973600,2.1299736328125,-3.260493278503418,5.196630477905273,1.8648189306259155
1683885694612846300,2.146846435546875,-3.8571557998657227,5.548030853271484,2.4020748138427734
1683885694629715500,2.163715576171875,-4.533842086791992,5.231297016143799,2.227520227432251
1683885694646589700,2.180589599609375,-5.158604145050049,4.658763885498047,1.8402315378189087
1683885694663459600,2.19745947265625,-5.652946949005127,5.05216121673584,1.7821993827819824
1683885694680336400,2.21433642578125,-6.166990280151367,5.931959629058838,2.238668441772461
1683885694697207600,2.23120751953125,-6.471048355102539,5.8890461921691895,2.757598400115967
1683885694714078200,2.248078125,-6.340017795562744,5.318345546722412,2.9523117542266846
1683885694730941000,2.26494091796875,-5.811161041259766,4.983438491821289,2.953991651535034
1683885694747813000,2.281813232421875,-5.417763710021973,5.006346225738525,3.2569806575775146
1683885694764693200,2.298693359375,-5.114163875579834,4.669911861419678,3.729179620742798
1683885694781569300,2.3155693359375,-4.6909871101379395,3.989408254623413,3.757890224456787
1683885694798439400,2.332439453125,-4.062864780426025,3.1564934253692627,3.408627986907959
1683885694815310800,2.349310791015625,-3.464369535446167,2.573269844055176,2.897944688796997
1683885694832174000,2.366174072265625,-2.884047508239746,1.3442089557647705,2.5089762210845947
1683885694849044700,2.383044677734375,-2.010357618331909,0.9917397499084473,2.381305456161499
1683885694865927700,2.399927734375,-0.835358202457428,0.6394231915473938,1.9900462627410889
1683885694882799400,2.41679931640625,-0.05406157299876213,-0.1915062516927719,1.18660569190979
1683885694899673000,2.433673095703125,0.48609602451324463,-0.6380487680435181,0.3597996234893799
1683885694916543700,2.450543701171875,1.0705413818359375,-0.4524984359741211,0.4648684561252594
1683885694933416400,2.46741650390625,1.7307339906692505,0.5245805382728577,0.8904888033866882
1683885694950288100,2.4842880859375,2.04655122756958,1.2710578441619873,1.1801916360855103
1683885694967161600,2.50116162109375,1.7114917039871216,1.307709813117981,0.6959282159805298
1683885694984021800,2.518021728515625,0.9781479835510254,1.3405437469482422,0.3474296033382416
1683885695000904700,2.53490478515625,0.26832255721092224,1.404226541519165,0.3179553747177124
1683885695017776600,2.551776611328125,-0.15913039445877075,1.133460521697998,0.19868391752243042
1683885695034650000,2.568650146484375,0.14844025671482086,0.9640980958938599,0.16065755486488342
1683885695051521000,2.58552099609375,0.5381723046302795,0.9938777685165405,0.24816401302814484
1683885695068395500,2.6023955078125,0.8746063113212585,1.0267117023468018,0.31551191210746765
1683885695085262600,2.6192626953125,0.9932668805122375,0.7290676832199097,0.33429601788520813
1683885695102152400,2.63615234375,0.9799805879592896,0.3220787048339844,0.3833179473876953
1683885695118998800,2.652998779296875,1.1407908201217651,0.36422839760780334,0.826500654220581
1683885695135883000,2.669883056640625,1.261742115020752,0.25442537665367126,0.780380368232727
1683885695152754000,2.68675390625,1.0077749490737915,-0.009773843921720982,0.35521814227104187
1683885695169627600,2.703627685546875,0.30741792917251587,-0.40103304386138916,-0.1212567538022995
1683885695186497800,2.720497802734375,-0.3842342495918274,-0.9201157689094543,-1.0613783597946167
1683885695203371000,2.73737109375,0.6206390857696533,0.05757404863834381,-0.19226983189582825
1683885695220241700,2.75424169921875,2.0306687355041504,0.45631635189056396,-0.30405816435813904
1683885695237116000,2.771115966796875,1.952478051185608,0.03878994286060333,-0.18585574626922607
1683885695253985800,2.78798583984375,1.5383113622665405,0.11957687139511108,0.9062185883522034
1683885695270860300,2.8048603515625,1.277166485786438,0.8335255980491638,2.381458044052124
1683885695287730700,2.821730712890625,1.0566442012786865,1.2748757600784302,2.774244546890259
1683885695304602000,2.83860205078125,0.6789767146110535,0.9944885969161987,1.374904990196228
1683885695321477400,2.855477294921875,0.25244006514549255,0.7780895829200745,-0.4121813178062439
1683885695338348000,2.87234814453125,-0.5865833759307861,0.5754350423812866,-1.6455183029174805
1683885695355217200,2.889217041015625,-2.059684991836548,-0.8680394887924194,-2.3487768173217773
1683885695372095500,2.906095458984375,-3.651599645614624,-2.333963394165039,-3.260645866394043
1683885695388972800,2.922972900390625,-3.995516777038574,-2.119396924972534,-4.159687042236328
1683885695405836300,2.939836181640625,-4.29667329788208,-0.8338310718536377,-4.252691268920898
1683885695422708200,2.956708251953125,-3.9663479328155518,-0.4358523488044739,-3.042567014694214
1683885695439583000,2.9735830078125,-3.2374331951141357,-0.8718574047088623,-1.0755809545516968
1683885695456451300,2.990451416015625,-2.7728700637817383,-0.9703594446182251,0.4147774875164032
1683885695473325000,3.007324951171875,-2.562274217605591,1.064738154411316,0.5751296281814575
1683885695490196700,3.02419677734375,-2.8072311878204346,2.372600555419922,-0.10155634582042694
1683885695507070500,3.041070556640625,-3.163365602493286,3.436269760131836,-0.7012733221054077
1683885695523941000,3.057941162109375,-3.16046404838562,4.298505783081055,-0.8232936263084412
1683885695540813800,3.074813720703125,-2.9188668727874756,3.9492437839508057,-0.20234911143779755
1683885695557685200,3.091685302734375,-2.339919328689575,1.8884899616241455,1.188132882118225
1683885695574550300,3.10855029296875,-1.3907874822616577,-0.020922135561704636,2.6674957275390625
1683885695591432700,3.1254326171875,-1.4666874408721924,0.3908010423183441,3.216358184814453
1683885695608302300,3.14230224609375,-1.996002197265625,1.5578590631484985,3.194061756134033
1683885695625171500,3.15917138671875,-2.3414463996887207,2.3047945499420166,3.0414979457855225
1683885695642048500,3.176048583984375,-2.7540860176086426,2.4129176139831543,2.950479030609131
1683885695658933800,3.192933837890625,-3.2256739139556885,2.0305161476135254,2.9080240726470947
1683885695675787800,3.209787841796875,-3.7029123306274414,1.6007723808288574,2.936123847961426
1683885695692662800,3.226662841796875,-4.059504985809326,1.421025276184082,2.998432159423828
1683885695709536500,3.24353662109375,-3.953061819076538,1.397048830986023,2.847701072692871
1683885695726407200,3.2604072265625,-3.3454034328460693,-0.6212499737739563,0.6806566119194031
1683885695743280000,3.277280029296875,-3.4849863052368164,-2.6619980335235596,-1.5804611444473267
1683885695760151600,3.294151611328125,-3.894418716430664,-3.677103281021118,-2.9378037452697754
1683885695777025000,3.31102490234375,-3.685044527053833,-3.522859811782837,-3.241403818130493
1683885695793895700,3.327895751953125,-2.640923261642456,-3.0330986976623535,-2.5175282955169678
1683885695810768400,3.344768310546875,-1.038318157196045,-2.3160955905914307,-1.1937834024429321
1683885695827640000,3.36164013671875,-0.08949175477027893,-0.8765916228294373,-0.16493362188339233
1683885695844514600,3.3785146484375,-0.3677408695220947,0.1036943718791008,0.45753806829452515
1683885695861383400,3.395383544921875,-1.0170906782150269,1.0505355596542358,0.7774787545204163
1683885695878257200,3.412257080078125,-1.5195273160934448,2.213317394256592,0.9245445728302002
1683885695895128600,3.429128662109375,-1.676366925239563,3.448334217071533,1.0199922323226929
1683885695911992000,3.445991943359375,-1.7327193021774292,3.735288143157959,1.718363881111145
1683885695928872400,3.46287255859375,-1.8768835067749023,1.7945693731307983,3.402977466583252
1683885695945746000,3.479745849609375,-1.679421305656433,1.7647897005081177,3.413667678833008
1683885695962609200,3.496609130859375,-0.17852537333965302,1.787697196006775,2.7511844635009766
1683885695979491300,3.5134912109375,1.2623530626296997,1.3122912645339966,1.571603536605835
1683885695996364500,3.530364501953125,1.5940529108047485,0.10216721147298813,0.1365283876657486
1683885696013227800,3.547227783203125,1.1563678979873657,-1.508989930152893,-1.1218540668487549
1683885696030110500,3.5641103515625,0.4943426847457886,-2.691624879837036,-1.7087428569793701
1683885696046979800,3.580979736328125,0.014508049935102463,-3.0860912799835205,-1.53525710105896
1683885696063850500,3.5978505859375,-0.014049900695681572,-3.2177326679229736,-0.7402159571647644
1683885696080723500,3.614723388671875,0.11698069423437119,-2.8736627101898193,0.11530081182718277
1683885696097595000,3.631594970703125,0.06872233748435974,-1.9503400325775146,0.6612616181373596
1683885696114468900,3.64846875,0.02519819140434265,-0.8955284357070923,0.970054030418396
1683885696131339300,3.66533935546875,0.04612032696604729,-0.0003054326225537807,1.1105530261993408
1683885696148212200,3.682212158203125,0.06414084881544113,0.5693264007568359,1.041067123413086
1683885696165070600,3.699070556640625,0.04642575979232788,0.6713408827781677,0.7910705208778381
1683885696181960400,3.71596044921875,0.06872233748435974,0.4499022662639618,0.4398229718208313
1683885696198828000,3.732828125,0.14874568581581116,0.17012597620487213,0.16050484776496887
1683885696215700700,3.74970068359375,0.21074850857257843,0.04535674303770065,0.11224649101495743
1683885696232573000,3.766572998046875,0.1944078654050827,0.01664607785642147,0.28008171916007996
1683885696249446400,3.7834462890625,0.14737124741077423,-0.2301434874534607,0.6082690954208374
1683885696266316800,3.80031689453125,0.056352317333221436,-0.6488916277885437,0.8257371187210083
1683885696283175400,3.817175537109375,-0.08811730891466141,-0.8029823899269104,0.6904304623603821
1683885696300061400,3.8340615234375,-0.2099849283695221,-0.7312057018280029,0.38209620118141174
1683885696316935000,3.850934814453125,-0.25564709305763245,-0.5088507533073425,0.10537425428628922
1683885696333805800,3.867805908203125,-0.24572055041790009,-0.3764457106590271,0.01725694350898266
1683885696350678800,3.8846787109375,-0.22708915174007416,-0.5551238059997559,0.1394299864768982
1683885696367550000,3.901550048828125,-0.2612976133823395,-0.7305948138237,0.2076941877603531
1683885696384424000,3.918423828125,-0.30512720346450806,-0.7519751191139221,0.14065171778202057
1683885696401294300,3.93529443359375,-0.29474249482154846,-0.7428121566772461,0.0757472887635231
1683885696418162700,3.95216259765625,-0.3260493278503418,-0.7861835956573486,0.09941831976175308
1683885696435039000,3.9690390625,-0.38408151268959045,-0.9327912330627441,0.22388210892677307
1683885696451916300,3.985916259765625,-0.44547349214553833,-1.2334896326065063,0.417679101228714
1683885696468791800,4.002791748046875,-0.5592471361160278,-1.5334244966506958,0.5094616413116455
1683885696485655800,4.01965576171875,-0.694248378276825,-1.5332717895507812,0.3410155177116394
1683885696502527500,4.036527587890625,-0.7029531598091125,-1.5893186330795288,0.18310685455799103
1683885696519401700,4.053401611328125,-0.5068654417991638,-2.3634376525878906,0.3776674270629883
1683885696536272100,4.070272216796875,-0.2652682363986969,-3.392287492752075,0.566119372844696
1683885696553145000,4.08714501953125,-0.10903944820165634,-4.862639904022217,0.7367035150527954
1683885696570016800,4.104016845703125,0.044287730008363724,-7.355581283569336,0.6207917928695679
1683885696586890500,4.120890380859375,0.6418666839599609,-7.601759910583496,-0.48487427830696106
1683885696603761000,4.137760986328125,1.8327484130859375,-4.118453502655029,-1.8599319458007812
1683885696620623400,4.154623291015625,2.74079966545105,-1.455691933631897,-2.397646188735962
1683885696637505500,4.171505615234375,2.6316075325012207,-0.4534147381782532,-2.350762128829956
1683885696654379000,4.18837890625,2.1035144329071045,-0.010231993161141872,-2.316859245300293
1683885696671250200,4.205250244140625,1.4237741231918335,0.15760323405265808,-2.283872365951538
1683885696688122600,4.22212255859375,0.7472409009933472,0.7388415336608887,-2.0977113246917725
1683885696704991500,4.238991455078125,0.4108068645000458,1.7362316846847534,-1.6074918508529663
1683885696721870600,4.25587060546875,0.42500948905944824,3.422983407974243,-0.942259669303894
1683885696738733800,4.27273388671875,0.4300491213798523,4.991227149963379,0.060475658625364304
1683885696755611400,4.289611328125,0.3326161205768585,3.2838587760925293,1.433395266532898
1683885696772483000,4.306483154296875,0.5453499555587769,0.2422080636024475,1.5651894807815552
1683885696789357000,4.323357177734375,1.0755809545516968,-0.7498371005058289,0.6385068893432617
1683885696806225200,4.34022509765625,1.6649131774902344,-0.9511171579360962,-0.20586158335208893
1683885696823103000,4.35710302734375,2.0508272647857666,-0.4260784983634949,-0.13545936346054077
1683885696839984000,4.373984130859375,2.0722076892852783,1.733788251876831,0.4761694669723511
1683885696856845600,4.390845458984375,1.780824899673462,3.3928983211517334,0.2718350291252136
1683885696873716500,4.407716552734375,1.296714186668396,3.5072827339172363,-0.4622722864151001
1683885696890589400,4.42458935546875,0.7515169382095337,2.7992899417877197,-1.0001391172409058
1683885696907460900,4.4414609375,0.37430769205093384,2.355496406555176,-0.8932377099990845
1683885696924332800,4.458332763671875,0.08032877743244171,2.816852331161499,-0.3543018400669098
1683885696941207600,4.47520751953125,-0.3156646192073822,3.2724051475524902,0.03756821155548096
1683885696958071000,4.492071044921875,-0.6466008424758911,2.992323398590088,0.038637228310108185
1683885696974952700,4.50895263671875,-0.7970264554023743,2.4211645126342773,-0.2713768780231476
1683885696991821800,4.52582177734375,-0.6522513628005981,1.9324722290039062,-0.6075055003166199
1683885697008694300,4.5426943359375,-0.285121351480484,1.7745635509490967,-0.5716171264648438
1683885697025567000,4.55956689453125,0.12797626852989197,1.5259413719177246,-0.21242839097976685
1683885697042439000,4.57643896484375,0.21624629199504852,0.5148066878318787,0.08032877743244171
1683885697059312600,4.593312744140625,-0.00427605677396059,-0.41141775250434875,0.1408044397830963
1683885697076183000,4.61018310546875,0.08124507963657379,-0.3689626157283783,0.10308351367712021
1683885697093055700,4.6270556640625,0.3101668357849121,0.4625777006149292,-0.22770002484321594
1683885697109928000,4.643927978515625,0.6534730792045593,1.8987219333648682,-0.8649851679801941
1683885697126801400,4.660801513671875,0.6088799238204956,2.2241604328155518,-1.5763378143310547
1683885697143682000,4.67768212890625,-0.02687807008624077,1.386358618736267,-1.6342172622680664
1683885697160547600,4.694547607421875,-0.6495024561882019,0.9248499870300293,-0.50335294008255
1683885697177416400,4.71141650390625,-0.4282165467739105,0.3599523603916168,-0.13805554807186127
1683885697194298400,4.72829833984375,0.09178250283002853,0.7823656797409058,-0.5088507533073425
1683885697211157800,4.74515771484375,0.22876903414726257,1.288467526435852,-0.8585711121559143
1683885697228031200,4.76203125,-0.013744467869400978,1.6762142181396484,-1.023352026939392
1683885697244890600,4.778890625,-0.3773620128631592,2.0706803798675537,-1.1242974996566772
1683885697261782000,4.795781982421875,-0.6459900140762329,2.4416284561157227,-1.3503175973892212
1683885697278650400,4.812650390625,-0.7519751191139221,2.646726369857788,-1.6476563215255737
1683885697295533300,4.829533203125,-0.8495608568191528,2.800053596496582,-1.8080084323883057
1683885697312394500,4.84639453125,-0.9915869832038879,2.954144239425659,-1.7458528280258179
1683885697329258200,4.86325830078125,-0.9923505783081055,3.2310190200805664,-1.5297592878341675
1683885697346128400,4.88012841796875,-0.7764097452163696,3.665955066680908,-1.2093604803085327
1683885697363011600,4.897011474609375,-0.4323398768901825,4.058130741119385,-0.8113817572593689
1683885697379883500,4.913883544921875,-0.23548854887485504,4.093713283538818,-0.41599923372268677
1683885697396757200,4.93075732421875,-0.22296582162380219,3.3904547691345215,0.03039054572582245
1683885697413628000,4.9476279296875,-0.06994406878948212,2.366950035095215,0.460897833108902
1683885697430500900,4.9645009765625,0.23808473348617554,1.3096951246261597,0.8930850028991699
1683885697447372300,4.981372314453125,0.5326744914054871,0.050854530185461044,1.4619532823562622
1683885697464246300,4.998246337890625,0.5326744914054871,-0.6507241725921631,1.799456238746643
1683885697481117000,5.015116943359375,0.49617528915405273,-0.973566472530365,1.9118554592132568
1683885697497989600,5.03198974609375,0.5500841736793518,-1.0615310668945312,1.9804251194000244
1683885697514858800,5.048858642578125,0.613461434841156,-1.0322095155715942,2.0873265266418457
1683885697531738000,5.065738037109375,0.6294966340065002,-0.8252789378166199,2.176970958709717
1683885697548614000,5.08261376953125,0.52702397108078,-0.5340489149093628,2.202627420425415
1683885697565481200,5.099481201171875,0.2808452844619751,-0.27382034063339233,2.1487185955047607
1683885697582350600,5.1163505859375,-0.032528575509786606,-0.11728613078594208,2.001958131790161
1683885697599224300,5.133224365234375,-0.38087448477745056,-0.06490442901849747,1.737911581993103
1683885697616095000,5.150094970703125,-0.7739662528038025,0.010231993161141872,1.404226541519165
1683885697632967400,5.166967529296875,-1.1759155988693237,-0.4216497242450714,1.704466700553894
1683885697649838800,5.1838388671875,-1.1162035465240479,-2.4214699268341064,0.7785477638244629
1683885697666714000,5.200714111328125,-0.8223773241043091,-2.4972171783447266,-1.3086260557174683
1683885697683583700,5.217583740234375,-0.6383541822433472,-0.7451028823852539,-2.9659035205841064
1683885697700453000,5.234453125,-0.6950119137763977,1.6551393270492554,-2.5479190349578857
1683885697717329000,5.251328857421875,-0.07773260027170181,1.3115277290344238,-2.892446994781494
1683885697734202400,5.268202392578125,0.8110763430595398,-0.3058907687664032,-3.57066011428833
1683885697751073300,5.2850732421875,1.6006196737289429,-1.0094548463821411,-3.483917236328125
1683885697767943000,5.30194287109375,2.1894936561584473,-0.9410378932952881,-2.836552858352661
1683885697784817400,5.3188173828125,2.5088236331939697,-1.2754865884780884,-2.549293279647827
1683885697801694000,5.33569384765625,2.4776694774627686,-1.821752905845642,-2.358397960662842
1683885697818564000,5.352564208984375,2.171625852584839,-2.3263275623321533,-1.9292651414871216
1683885697835432700,5.3694326171875,1.6154330968856812,-2.4808764457702637,-1.1614075899124146
1683885697852304100,5.38630419921875,0.9903652667999268,-1.788002610206604,-0.11743884533643723
1683885697869170000,5.403169921875,0.9604328870773315,-0.2119702398777008,0.9062185883522034
1683885697886053400,5.420053466796875,1.0474811792373657,0.9392052888870239,1.3909401893615723
1683885697902923800,5.436923828125,0.8497135639190674,1.1908818483352661,1.5894713401794434
1683885697919792600,5.453792724609375,0.6418666839599609,0.041691552847623825,1.7757853269577026
1683885697936672000,5.470672119140625,0.8472700715065002,-0.6721044778823853,1.1227703094482422
1683885697953540000,5.4875400390625,1.1658363342285156,0.12476922571659088,-0.00809396430850029
1683885697970413000,5.5044130859375,1.1905763149261475,1.4558446407318115,-0.8866708874702454
1683885697987282000,5.521281982421875,1.0444267988204956,2.3164010047912598,-1.173930287361145
1683885698004160800,5.538160888671875,0.8011497855186462,2.4272730350494385,-0.9479101300239563
1683885698021029000,5.555029052734375,0.4334088861942291,2.127185583114624,-0.44745880365371704
1683885698037901800,5.57190185546875,0.11927144229412079,1.6079500913619995,0.26419922709465027
1683885698054769200,5.58876904296875,-0.08918632566928864,1.2638801336288452,0.9842566251754761
1683885698071652000,5.605652099609375,-0.3614795207977295,1.4509576559066772,1.4172073602676392
1683885698088518400,5.622518310546875,-0.6537785530090332,1.4158328771591187,1.5699236392974854
1683885698105391000,5.63939111328125,-0.8732318878173828,0.6806566119194031,1.297935962677002
1683885698122252000,5.656251953125,-1.0297660827636719,-0.24938572943210602,0.641255795955658
1683885698139127000,5.673126953125,-1.1488847732543945,-0.44944411516189575,-0.0065668015740811825
1683885698156007200,5.690007080078125,-1.0673342943191528,0.058337632566690445,-0.1768454909324646
1683885698172880400,5.70688037109375,-0.6647741198539734,0.6097962260246277,-0.09407325088977814
1683885698189752000,5.723751953125,0.07849618047475815,0.9808968901634216,-0.15546520054340363
1683885698206623000,5.740623046875,0.88987797498703,1.2803735733032227,-0.31291571259498596
1683885698223498500,5.75749853515625,1.2012665271759033,1.1913399696350098,-0.1437060534954071
1683885698240370000,5.774369873046875,0.7276932001113892,0.5251913666725159,-0.010690141469240189
1683885698257240800,5.79124072265625,-0.3136793076992035,-0.6763805150985718,-0.7205155491828918
1683885698274104000,5.80810400390625,-0.6269004344940186,-1.0812314748764038,-1.6378824710845947
1683885698290985700,5.82498583984375,-0.5215262174606323,-0.5688682794570923,-1.9026925563812256
1683885698307858200,5.841858154296875,-0.5215262174606323,0.06963863968849182,-1.4827226400375366
1683885698324725200,5.858725341796875,-0.5059491395950317,0.9673051238059998,-0.8695666790008545
1683885698341608700,5.875608642578125,-0.5050328373908997,2.1459696292877197,-0.6073527932167053
1683885698358474500,5.892474609375,-0.4902193546295166,3.0660853385925293,-0.522595226764679
1683885698375337200,5.909337158203125,-0.5053382515907288,3.2557590007781982,-0.5199990272521973
1683885698392219100,5.92621923828125,-0.5681046843528748,2.8211283683776855,-0.5338962078094482
1683885698409082600,5.94308251953125,-0.6004805564880371,1.915215253829956,-0.34758231043815613
1683885698425953300,5.959953369140625,-0.5561928153038025,1.1525499820709229,-0.02535090781748295
1683885698442836500,5.97683642578125,-0.4118759036064148,0.760832667350769,0.3107776939868927
1683885698459708400,5.99370849609375,-0.1287398487329483,0.6539312601089478,0.6389650702476501
1683885698476582000,6.010581787109375,0.1267545372247696,0.6731734871864319,0.9529497623443604
1683885698493452800,6.027452880859375,0.17928895354270935,0.626747727394104,1.1962268352508545
1683885698510327800,6.044327880859375,0.192422553896904,0.19165897369384766,1.373683214187622
1683885698527191600,6.061191650390625,0.256868839263916,-0.31932979822158813,1.4439327716827393
1683885698544071200,6.0780712890625,0.3744603991508484,-0.6352998614311218,1.4005613327026367
1683885698560941800,6.09494189453125,0.45662176609039307,-0.8805622458457947,1.3454307317733765
1683885698577814800,6.111814697265625,0.4395175576210022,-1.182482361793518,1.3322970867156982
1683885698594681900,6.128681884765625,0.33078351616859436,-1.5323554277420044,1.3663527965545654
1683885698611564800,6.145564697265625,0.21960605680942535,-1.782657504081726,1.4233160018920898
1683885698628421400,6.16242138671875,0.13041973114013672,-1.8553504943847656,1.4676038026809692
1683885698645303800,6.1793037109375,0.027641652151942253,-1.800678014755249,1.4701999425888062
1683885698662175700,6.19617578125,-0.08246681094169617,-1.700343370437622,1.4051427841186523
1683885698679039000,6.2130390625,-0.18555031716823578,-1.6187928915023804,1.2501357793807983
1683885698695920400,6.22992041015625,-0.29657506942749023,-1.5754214525222778,1.0085384845733643
1683885698712793000,6.24679296875,-0.4225660264492035,-1.5383113622665405,0.717308521270752
1683885698729665000,6.2636650390625,-0.5558874011039734,-1.4456125497817993,0.4121813178062439
1683885698746538800,6.280538818359375,-0.6716463565826416,-1.251968264579773,0.12003502249717712
1683885698763409400,6.297409423828125,-0.7298312783241272,-0.9508117437362671,-0.13958270847797394
1683885698780282400,6.314282470703125,-0.7101308703422546,-0.6056728959083557,-0.34284812211990356
1683885698797154000,6.331154052734375,-0.675006091594696,-0.2840523421764374,-0.45433104038238525
1683885698814028000,6.348028076171875,-0.6394231915473938,-0.06368270516395569,-0.41462478041648865
1683885698830898400,6.3648984375,-0.5905539989471436,-0.018020525574684143,-0.2344195395708084
1683885698847771100,6.381771240234375,-0.540921151638031,-0.15683965384960175,0.02382374368607998
1683885698864643000,6.39864306640625,-0.4502076804637909,-0.4622722864151001,0.30146199464797974
1683885698881517000,6.41551708984375,-0.3326161205768585,-0.7518224120140076,0.4990769028663635
1683885698898387700,6.4323876953125,-0.23594669997692108,-0.8121453523635864,0.5381723046302795
1683885698915260400,6.449260498046875,-0.1739438772201538,-0.8523097038269043,0.5542075037956238
1683885698932132600,6.466132568359375,-0.09957103431224823,-0.8755226135253906,0.637132465839386
1683885698948995800,6.482995849609375,-0.008857546374201775,-0.8063421249389648,0.7458664774894714
1683885698965876700,6.499876708984375,0.02580905705690384,-0.6174320578575134,0.7835873961448669
1683885698982749700,6.516749755859375,-0.006108652334660292,-0.4236350357532501,0.7127270102500916
1683885698999619000,6.533619140625,0.03420845419168472,-0.2681698501110077,0.561079740524292
1683885699016495900,6.550495849609375,0.1394299864768982,-0.10018189996480942,0.3546072840690613
1683885699033368300,6.567368408203125,0.18738290667533875,0.15424346923828125,0.11560624837875366
1683885699050236400,6.584236328125,0.1391245573759079,0.45524731278419495,-0.046273041516542435
1683885699067113200,6.60111328125,0.10491610318422318,0.8235990405082703,-0.08002334833145142
1683885699083984600,6.617984619140625,0.17837265133857727,1.2107349634170532,0.014508049935102463
1683885699100855300,6.634855224609375,0.40973785519599915,0.9999864101409912,0.9327912330627441
1683885699117728000,6.65172802734375,0.64217209815979,-0.9017898440361023,2.7565293312072754
1683885699134600000,6.668599853515625,0.6589708924293518,-3.2536211013793945,3.043483257293701
1683885699151471600,6.6854716796875,0.7812966704368591,-8.983536720275879,2.0118846893310547
1683885699168347100,6.70234716796875,1.3371840715408325,-11.388818740844727,-0.144622340798378
1683885699185217300,6.71921728515625,1.8713856935501099,-5.4253997802734375,-1.734704613685608
1683885699202089000,6.7360888671875,1.991878867149353,-0.3153591752052307,-2.9078712463378906
1683885699218972000,6.752971923828125,1.6363552808761597,1.0829113721847534,-3.7007744312286377
1683885699235833900,6.769833740234375,1.0728321075439453,0.8203920125961304,-3.014772653579712
1683885699252706800,6.786706787109375,0.8530732989311218,1.0126618146896362,-1.8238909244537354
1683885699269578500,6.80357861328125,0.9127854108810425,0.9592111706733704,-1.1427761316299438
1683885699286452200,6.8204521484375,0.5816964507102966,0.46334129571914673,-0.8642216324806213
1683885699303323000,6.837322998046875,0.10644327104091644,-0.36529740691185,-0.24572055041790009
1683885699320195800,6.85419580078125,0.12324206531047821,-0.2793181240558624,0.44180828332901
1683885699337067500,6.871067626953125,0.4115704596042633,-0.12996158003807068,0.9705121517181396
1683885699353941500,6.88794140625,0.7620543837547302,-1.0044151544570923,1.0563386678695679
1683885699370812400,6.9048125,1.1110111474990845,-1.4624114036560059,0.7073819637298584
1683885699387685000,6.92168505859375,1.2066116333007812,-0.708450973033905,0.33368512988090515
1683885699404554000,6.938553955078125,1.021519422531128,0.6449210047721863,0.039706241339445114
1683885699421433300,6.955433349609375,0.801913321018219,1.7333301305770874,-0.3225368559360504
1683885699438301400,6.972301513671875,0.5899431109428406,2.168724298477173,-0.7020368576049805
1683885699455174100,6.989174072265625,0.38087448477745056,2.0384573936462402,-0.8591819405555725
1683885699472046300,7.00604638671875,0.23258693516254425,1.5764905214309692,-0.6296493411064148
1683885699488929300,7.02292919921875,0.1742493063211441,1.0734429359436035,-0.04245513305068016
1683885699505790700,7.039790771484375,0.05497787147760391,0.7877107262611389,0.6301075220108032
1683885699522663700,7.05666357421875,-0.09285151958465576,0.7877107262611389,1.036943793296814
1683885699539535400,7.073535400390625,-0.2750420868396759,0.836885392665863,1.1388055086135864
1683885699556409000,7.0904091796875,-0.4807509481906891,0.8304712772369385,1.0057896375656128
1683885699573280000,7.107280029296875,-0.6305656433105469,0.8775079250335693,0.6947064995765686
1683885699590153000,7.124153076171875,-0.6968445181846619,0.998153805732727,0.29565876722335815
1683885699607024600,7.141024658203125,-0.6916521787643433,1.254717230796814,-0.12247848510742188
1683885699623898600,7.157898681640625,-0.661719799041748,1.5771013498306274,-0.4931209683418274
1683885699640769300,7.174769287109375,-0.5342016816139221,1.7078264951705933,-0.6649268269538879
1683885699657631500,7.191631591796875,-0.2541199326515198,1.6716327667236328,-0.6730207800865173
1683885699674514700,7.2085146484375,-0.03145955875515938,1.5086843967437744,-0.6302602291107178
1683885699691387400,7.225387451171875,0.1976149082183838,1.4576772451400757,-0.6704245805740356
1683885699708267800,7.242267822265625,0.5229006409645081,1.671938180923462,-0.775340735912323
1683885699725132000,7.259132080078125,0.6536257863044739,1.848020076751709,-0.7904596328735352
1683885699742002200,7.276002197265625,0.5288565754890442,1.9225456714630127,-0.6918048858642578
1683885699758867200,7.2928671875,0.2664899528026581,1.9900462627410889,-0.2900082767009735
1683885699775747800,7.309747802734375,0.07819075137376785,2.0089831352233887,0.4343251883983612
1683885699792620500,7.32662060546875,-0.06444628536701202,1.4703526496887207,0.7588473558425903
1683885699809492500,7.343492431640625,-0.21288654208183289,0.7174612283706665,0.5797111392021179
1683885699826366500,7.360366455078125,-0.3309362530708313,0.22540926933288574,0.2405281960964203
1683885699843237000,7.377237060546875,-0.384845107793808,0.1293507218360901,-0.07116580009460449
1683885699860110000,7.394110107421875,-0.42928555607795715,0.28435778617858887,-0.3384193480014801
1683885699876981800,7.410981689453125,-0.4118759036064148,0.6375905871391296,-0.5647448897361755
1683885699893855700,7.427855712890625,-0.2814561724662781,1.0668761730194092,-0.698677122592926
1683885699910726400,7.444726318359375,-0.2785545587539673,1.3619240522384644,-0.6841690540313721
1683885699927599400,7.461599365234375,-0.513737678527832,1.4191926717758179,-0.5096143484115601
1683885699944471000,7.478470947265625,-0.6075055003166199,1.458593487739563,-0.3043636083602905
1683885699961345000,7.495344970703125,-0.5051855444908142,1.5619823932647705,-0.1609629988670349
1683885699978215700,7.512215576171875,-0.45982882380485535,1.6901113986968994,-0.08888089656829834
1683885699995088400,7.52908837890625,-0.5154175758361816,1.7655532360076904,-0.15103642642498016
1683885700011948800,7.54594873046875,-0.5580254197120667,1.725541591644287,-0.36071592569351196
1683885700028834300,7.562834228515625,-0.522595226764679,1.6203200817108154,-0.6588181853294373
1683885700045705000,7.579705078125,-0.42531493306159973,1.472796082496643,-0.9039278626441956
1683885700062578000,7.596577880859375,-0.31459560990333557,1.1288789510726929,-0.9036223888397217
1683885700079449900,7.613449951171875,-0.1999056488275528,0.5838344693183899,-0.5900958180427551
1683885700096323800,7.63032373046875,-0.12324206531047821,0.032528575509786606,-0.09789115190505981
1683885700113194200,7.6471943359375,-0.13316862285137177,-0.3972151279449463,0.3900374472141266
1683885700130067500,7.6640673828125,-0.17287486791610718,-0.5280929803848267,0.7232644557952881
1683885700146931000,7.680930908203125,-0.17470745742321014,-0.531758189201355,0.8660541772842407
1683885700163816200,7.697816162109375,-0.15317445993423462,-0.5459607839584351,0.8768970370292664
1683885700180686600,7.7146865234375,-0.0806342139840126,-0.5677992701530457,0.8043568134307861
1683885700197556500,7.731556396484375,-0.0019853119738399982,-0.5366451144218445,0.7405213713645935
1683885700214428400,7.748428466796875,0.02535090781748295,-0.37598755955696106,0.7559457421302795
1683885700231302700,7.765302734375,0.024129176512360573,-0.11285735666751862,0.8602510094642639
1683885700248162800,7.782162841796875,0.022143865004181862,0.16432274878025055,0.9995282292366028
1683885700265043500,7.79904345703125,0.005497787147760391,0.35750889778137207,1.1094839572906494
1683885700281920500,7.81592041015625,-0.05757404863834381,0.3871358633041382,1.144914150238037
1683885700298796000,7.832796142578125,-0.15500704944133759,0.22708915174007416,1.102611780166626
1683885700315662300,7.849662353515625,-0.20723603665828705,-0.04902193695306778,0.9859365224838257
1683885700332532700,7.86653271484375,-0.2324342280626297,-0.3793473243713379,0.8315402865409851
1683885700349410000,7.88341015625,-0.2616030275821686,-0.6899722814559937,0.6582072973251343
1683885700366281000,7.900281005859375,-0.2929098904132843,-0.901637077331543,0.49724429845809937
1683885700383153000,7.91715283203125,-0.30054569244384766,-1.0047205686569214,0.38438695669174194
1683885700400026000,7.934026123046875,-0.3068070709705353,-1.1032226085662842,0.37369680404663086
1683885700416893700,7.950893798828125,-0.3419318199157715,-1.2942707538604736,0.4648684561252594
1683885700433770500,7.9677705078125,-0.41752639412879944,-1.4008667469024658,0.46471574902534485
1683885700450641400,7.984641357421875,-0.46379944682121277,-1.3277156352996826,0.2831360399723053
1683885700467513900,8.001513916015625,-0.4337143301963806,-1.2116512060165405,-0.022143865004181862
1683885700484385800,8.0183857421875,-0.37400224804878235,-1.1586586236953735,-0.37048977613449097
1683885700501259500,8.035259521484376,-0.375071257352829,-0.9320276379585266,-0.7762570381164551
1683885700518130700,8.052130615234375,-0.38835757970809937,-0.49846604466438293,-1.0844385623931885
1683885700535003400,8.06900341796875,0.02367102913558483,-0.5922338366508484,-0.37461310625076294
1683885700551875300,8.085875244140626,0.5581781268119812,-1.7163785696029663,1.6242907047271729
1683885700568738600,8.102738525390626,0.6684392690658569,-2.649322509765625,2.495537281036377
1683885700585619700,8.11961962890625,0.8758280277252197,-4.496120929718018,2.8101327419281006
1683885700602492700,8.13649267578125,1.0954340696334839,-9.671218872070312,2.3015875816345215
1683885700619354000,8.15335400390625,1.8639025688171387,-9.018508911132812,0.969443142414093
1683885700636238300,8.17023828125,2.391995668411255,-2.6648995876312256,-0.5488623976707458
1683885700653109200,8.187109130859374,2.3463335037231445,1.0479393005371094,-2.0929770469665527
1683885700669982500,8.203982421875,1.8154915571212769,1.6308574676513672,-2.9219212532043457
1683885700686854000,8.22085400390625,1.2649492025375366,0.8014551997184753,-2.607478380203247
1683885700703727900,8.237727783203125,1.1633929014205933,0.3396410644054413,-1.8808541297912598
1683885700720598500,8.2545986328125,1.1675162315368652,0.036193765699863434,-1.2330315113067627
1683885700737456000,8.2714560546875,0.9566149711608887,0.19013181328773499,-0.6743952035903931
1683885700754344200,8.28834423828125,0.6698137521743774,0.4967861473560333,0.2197587788105011
1683885700771219200,8.30521923828125,0.6333145499229431,-0.13347405195236206,1.0903944969177246
1683885700788088000,8.322088134765625,0.7038694620132446,-1.1227703094482422,1.2811371088027954
1683885700804958200,8.338958251953125,0.822682797908783,-1.4384349584579468,1.0276280641555786
1683885700821835300,8.355835205078124,0.8419250249862671,-0.5328271985054016,0.784503698348999
1683885700838703000,8.372703125,0.661719799041748,0.7009678483009338,0.5398521423339844
1683885700855576000,8.389576171875,0.4363104999065399,1.4425582885742188,0.18555031716823578
1683885700872450600,8.406450439453126,0.22098049521446228,1.5401439666748047,-0.12980885803699493
1683885700889309000,8.423308837890625,-0.043218716979026794,1.4023939371109009,-0.14798210561275482
1683885700906196000,8.440196044921874,-0.33536502718925476,1.3810136318206787,0.26190847158432007
1683885700923067100,8.457067138671874,-0.5383250117301941,1.522887110710144,0.9257662892341614
1683885700939940400,8.4739404296875,-0.5923865437507629,1.2148582935333252,1.4231632947921753
1683885700956811500,8.4908115234375,-0.5025894045829773,-0.01771509274840355,1.4046846628189087
1683885700973675300,8.50767529296875,-0.3257438838481903,-1.124755620956421,0.979216992855072
1683885700990545700,8.524545654296874,-0.20036379992961884,-0.9204211831092834,0.6707300543785095
1683885701007429000,8.54142919921875,-0.1843285858631134,-0.1408044397830963,0.3761402666568756
1683885701024300800,8.55830078125,0.08567385375499725,0.20295998454093933,-0.25335636734962463
1683885701041175000,8.575175048828125,0.48166725039482117,0.5960517525672913,-0.9260717034339905
1683885701058045700,8.592045654296875,0.9534079432487488,1.5027284622192383,-1.2075278759002686
1683885701074915800,8.608915771484375,0.855516791343689,1.9126191139221191,-1.296714186668396
1683885701091791000,8.625791015625,0.16371189057826996,1.324508547782898,-1.4385876655578613
1683885701108666000,8.642666015625,-0.6351471543312073,0.5119050741195679,-1.7345519065856934
1683885701125535200,8.65953515625,-0.8790351152420044,0.5381723046302795,-1.596496343612671
1683885701142408000,8.676407958984376,-0.7342600226402283,1.0447323322296143,-0.5355761051177979
1683885701159279900,8.69327978515625,-0.31749722361564636,1.1772900819778442,0.24908030033111572
1683885701176153600,8.710153564453124,0.007788531947880983,1.159727692604065,0.4524984359741211
1683885701193024500,8.7270244140625,0.037110064178705215,1.2405146360397339,0.5239696502685547
1683885701209897700,8.743897705078124,-0.1463022232055664,1.350928544998169,0.4251621961593628
1683885701226769200,8.76076904296875,-0.3859141170978546,1.3116804361343384,0.07269296050071716
1683885701243643100,8.77764306640625,-0.6597344875335693,0.9178250432014465,-0.37339138984680176
1683885701260511500,8.794511474609376,-0.8880453705787659,0.4990769028663635,-0.566119372844696
1683885701277389600,8.8113896484375,-0.879187822341919,0.4599815309047699,-0.5766568183898926
1683885701294248200,8.828248291015624,-0.7422012686729431,0.603076696395874,-0.4970915913581848
1683885701311132700,8.845132568359375,-0.6788240075111389,0.8371908068656921,-0.4106541574001312
1683885701328003300,8.86200341796875,-0.7411322593688965,1.0670288801193237,-0.39416080713272095
1683885701344873500,8.87887353515625,-0.8523097038269043,1.1504119634628296,-0.46273043751716614
1683885701361750800,8.895750732421876,-0.8530732989311218,0.9334021210670471,-0.5140430927276611
1683885701378622000,8.9126220703125,-0.7302893996238708,0.6733261942863464,-0.4867068827152252
1683885701395483100,8.929483154296875,-0.6834055185317993,0.6603453159332275,-0.3825543522834778
1683885701412365600,8.946365478515625,-0.7267768979072571,0.8324565887451172,-0.1511891484260559
1683885701429227500,8.9632275390625,-0.7929030656814575,1.0711522102355957,0.2054034322500229
1683885701446111500,8.980111572265624,-0.7935139536857605,1.3180944919586182,0.6198754906654358
1683885701462982400,8.996982421875,-0.7533495426177979,1.1916453838348389,1.2851077318191528
1683885701479855400,9.01385546875,-0.7967209815979004,0.42500948905944824,2.102445363998413
1683885701496727300,9.030727294921874,-0.8649851679801941,-0.17333301901817322,2.211332082748413
1683885701513602000,9.04760205078125,-0.8565858006477356,-0.4879286289215088,1.786780834197998
1683885701530470400,9.064470458984376,-0.8174903988838196,-0.8119926452636719,1.3025174140930176
1683885701547344600,9.0813447265625,-0.7687739133834839,-1.641547679901123,1.3603968620300293
1683885701564216300,9.09821630859375,-0.7727445363998413,-2.419942617416382,1.4718798398971558
1683885701581090600,9.115090576171875,-0.8655960559844971,-2.576018810272217,1.058171272277832
1683885701597961000,9.1319609375,-0.8935431241989136,-2.1682662963867188,0.48487427830696106
1683885701614831400,9.148831298828124,-0.7635815739631653,-1.1032226085662842,0.2041817009449005
1683885701631698200,9.1656982421875,-0.2382374405860901,0.285121351480484,0.24327708780765533
1683885701648579800,9.182579833984375,0.484416127204895,1.1867583990097046,0.15821409225463867
1683885701665450500,9.199450439453125,0.7089090943336487,0.6582072973251343,-0.0403171069920063
1683885701682323700,9.21632373046875,0.660192608833313,-1.1453723907470703,-0.23029619455337524
1683885701699208000,9.2332080078125,0.6114761233329773,-2.6650524139404297,-0.5433646440505981
1683885701716066600,9.250066650390625,0.6733261942863464,-2.52944016456604,-0.9558513760566711
1683885701732942600,9.266942626953124,0.7582364678382874,-1.6646077632904053,-1.6076445579528809
1683885701749813200,9.283813232421876,0.9746354818344116,-1.549154281616211,-2.197129487991333
1683885701766684700,9.3006845703125,1.2492194175720215,-1.7250834703445435,-2.2799017429351807
1683885701783559700,9.3175595703125,1.4844025373458862,-1.5748106241226196,-1.7840319871902466
1683885701800428800,9.3344287109375,1.8486309051513672,-1.2817480564117432,-1.1462886333465576
1683885701817302300,9.35130224609375,2.120924234390259,-1.0708467960357666,-0.760832667350769
1683885701834174200,9.36817431640625,1.8368717432022095,-0.7783950567245483,-0.5407684445381165
1683885701851048400,9.38504833984375,1.0228939056396484,-0.020616702735424042,-0.2822197377681732
1683885701867918800,9.4019189453125,0.5555819272994995,1.0835222005844116,0.15195272862911224
1683885701884789200,9.418789306640624,0.6753115057945251,2.1429152488708496,0.4205807149410248
1683885701901666600,9.43566650390625,0.7779368758201599,2.4949264526367188,0.7292203903198242
1683885701918537500,9.452537353515625,0.7878634333610535,1.4530956745147705,1.0740537643432617
1683885701935408600,9.46940869140625,0.9917397499084473,0.2519819140434265,1.0053315162658691
1683885701952281600,9.486281494140625,1.2559388875961304,0.32849279046058655,0.7932085394859314
1683885701969142800,9.503142822265625,1.3297009468078613,1.5170838832855225,0.7145596146583557
1683885701986027000,9.520027099609376,1.3405437469482422,2.6986498832702637,0.3602577745914459
1683885702002898000,9.53689794921875,1.3226759433746338,3.2030718326568604,-0.36621370911598206
1683885702019770600,9.5537705078125,1.1924089193344116,3.243847131729126,-1.017396092414856
1683885702036642800,9.570642822265626,0.9462302923202515,3.092963457107544,-1.1817188262939453
1683885702053516500,9.5875166015625,0.7382306456565857,2.76111102104187,-0.9138544201850891
1683885702070387700,9.6043876953125,0.3969096839427948,2.420858860015869,-0.18539759516716003
1683885702087260400,9.621260498046874,-0.1417207419872284,2.34175181388855,0.6125451326370239
1683885702104132000,9.638132080078124,-0.5309945940971375,2.227520227432251,1.1268936395645142
1683885702121006000,9.655006103515625,-0.7351763248443604,1.051146388053894,1.1745411157608032
1683885702137877000,9.671876953125,-0.7081455588340759,-0.06123924255371094,0.5503895878791809
1683885702154751500,9.68875146484375,-0.5468770861625671,0.2590068578720093,-0.4014911949634552
1683885702171620000,9.7056201171875,-0.29657506942749023,1.2912163734436035,-0.8717046976089478
1683885702188495600,9.72249560546875,0.2093740701675415,0.9636399149894714,-0.6498079299926758
1683885702205366500,9.739366455078125,0.6316346526145935,-0.13973543047904968,-0.3497203588485718
1683885702222220500,9.756220458984375,0.7976372838020325,-0.44196099042892456,-0.2194533348083496
1683885702239101200,9.77310107421875,1.1061242818832397,0.42088615894317627,-0.18616119027137756
1683885702255985200,9.789985107421876,1.122464895248413,1.1045970916748047,-0.5549710988998413
1683885702272849000,9.806848876953126,0.3341432809829712,0.9891435503959656,-1.239292860031128
1683885702289729000,9.82372900390625,-0.6363688707351685,0.7316638231277466,-1.7223345041275024
1683885702306600700,9.8406005859375,-1.0684033632278442,1.2194397449493408,-1.4744759798049927
1683885702323480800,9.857480712890625,-0.9660834074020386,1.8402315378189087,-0.5714644193649292
1683885702340345600,9.874345703125,-0.5308418869972229,1.8478673696517944,-0.2525927722454071
1683885702357218300,9.89121826171875,-0.24694228172302246,1.6780468225479126,-0.2535090744495392
1683885702374090200,9.90809033203125,-0.36453384160995483,1.57313072681427,-0.25564709305763245
1683885702390964500,9.924964599609375,-0.6502660512924194,1.4967725276947021,-0.3937026560306549
1683885702407835000,9.9418349609375,-0.8281805515289307,1.4208725690841675,-0.7281513810157776
1683885702424708600,9.95870849609375,-0.9182831645011902,1.380402684211731,-1.0836749076843262
1683885702441579300,9.975579345703125,-1.0990992784500122,1.4437800645828247,-1.178053617477417
1683885702458453800,9.992453857421875,-1.164156436920166,1.6464345455169678,-1.045495867729187
1683885702475324400,10.009324462890625,-0.9605855941772461,1.9533942937850952,-0.7921395301818848
1683885702492197400,10.026197265625,-0.6380487680435181,2.353511095046997,-0.5303837656974792
1683885702509061400,10.043061279296875,-0.4792237877845764,2.6868908405303955,-0.34055736660957336
1683885702525943000,10.059943115234375,-0.49464812874794006,2.682156562805176,-0.2093740701675415
1683885702542806300,10.07680615234375,-0.42699480056762695,2.3692407608032227,-0.07590000331401825
1683885702559677700,10.093677734375,-0.2802344262599945,2.0560197830200195,0.10018189996480942
1683885702576561200,10.11056103515625,-0.230448916554451,1.7872389554977417,0.35445454716682434
1683885702593430300,10.12743017578125,-0.18967366218566895,1.344056248664856,0.6556110978126526
1683885702610303500,10.144303466796876,-0.12507465481758118,0.7293730974197388,0.9500481486320496
1683885702627176400,10.161176513671874,-0.06658431142568588,-0.004123340360820293,1.2308934926986694
1683885702644048400,10.17804833984375,-0.031612277030944824,-0.4818199574947357,1.34283447265625
1683885702660922000,10.194922119140625,0.017409659922122955,-0.7373143434524536,1.3322970867156982
1683885702677782300,10.2117822265625,0.04046982154250145,-0.817948579788208,1.268919825553894
1683885702694662400,10.228662353515626,0.016951510682702065,-0.7941248416900635,1.2153164148330688
1683885702711541200,10.245541259765625,-0.041233405470848083,-0.7380779385566711,1.1670581102371216
1683885702728411600,10.26241162109375,-0.18417587876319885,-0.7098253965377808,1.0444267988204956
1683885702745282600,10.279282470703125,-0.4138612151145935,-0.7389942407608032,0.825584352016449
1683885702762155500,10.296155517578125,-0.6145304441452026,-0.7249443531036377,0.540921151638031
1683885702779009300,10.31300927734375,-0.6467535495758057,-0.5726861953735352,0.2370157092809677
1683885702795901200,10.329901123046875,-0.5232060551643372,-0.2915354371070862,0.26801711320877075
1683885702812772400,10.3467724609375,-0.4124867618083954,-0.17608191072940826,1.1279627084732056
1683885702829645000,10.36364501953125,-0.30863967537879944,-0.29245173931121826,1.5457944869995117
1683885702846516700,10.380516845703125,-0.10506882518529892,-2.4804184436798096,1.8952094316482544
1683885702863391000,10.397390869140626,0.25366178154945374,-8.37832260131836,1.0629055500030518
1683885702880261600,10.41426171875,1.1331549882888794,-7.5583882331848145,-0.5674937963485718
1683885702897134600,10.431134521484376,2.194380760192871,-1.9310977458953857,-2.0696115493774414
1683885702914006500,10.448006591796876,2.6001479625701904,0.45326200127601624,-2.9407052993774414
1683885702930878000,10.4648779296875,2.518139362335205,0.6733261942863464,-2.440101146697998
1683885702947753700,10.481753662109375,2.526233196258545,0.6611089110374451,-1.7989981174468994
1683885702964624000,10.498623779296874,2.2965478897094727,0.26572638750076294,-1.874592661857605
1683885702981496000,10.51549609375,1.8713856935501099,-0.43050727248191833,-1.800678014755249
1683885702998369800,10.532369873046875,1.3107640743255615,-1.0752755403518677,-1.0555751323699951
1683885703015240700,10.54924072265625,0.7812966704368591,-0.9645562171936035,-0.2782491147518158
1683885703032114000,10.566114013671875,0.6747006773948669,0.18600846827030182,0.33292156457901
1683885703048972500,10.58297265625,0.7771732807159424,0.9028588533401489,0.8553640842437744
1683885703065859300,10.599859375,0.8657487630844116,0.34086281061172485,1.2583824396133423
1683885703082719700,10.6167197265625,0.9628763198852539,-0.5096143484115601,1.1817188262939453
1683885703099603200,10.633603271484375,1.0151053667068481,-0.08002334833145142,0.6604980230331421
1683885703116475000,10.650474853515625,0.9156870245933533,1.1007791757583618,0.07849618047475815
1683885703133349000,10.66734912109375,0.8155050873756409,2.244013547897339,-0.3930917978286743
1683885703150220000,10.684219970703126,0.7082982659339905,2.7061331272125244,-0.6009386777877808
1683885703167090400,10.70109033203125,0.6082690954208374,2.6812403202056885,-0.5297728776931763
1683885703183966700,10.717966796875,0.498924195766449,2.4472789764404297,-0.1508837193250656
1683885703200838400,10.73483837890625,0.4024074673652649,1.8396207094192505,0.5503895878791809
1683885703217709300,10.751709228515624,0.2551889419555664,1.1137601137161255,1.3855950832366943
1683885703234581000,10.7685810546875,-0.06368270516395569,0.6713408827781677,2.059684991836548
1683885703251455500,10.78545556640625,-0.4057672321796417,0.43218716979026794,2.468353748321533
1683885703268328000,10.802327880859375,-0.7469354867935181,-0.8280278444290161,2.124742031097412
1683885703285198800,10.81919873046875,-0.8929322957992554,-2.2455406188964844,1.035722017288208
1683885703302071600,10.836071533203125,-0.8104654550552368,-1.5755741596221924,0.07666359096765518
1683885703318928600,10.8529287109375,-0.7066183686256409,-0.34804046154022217,0.0006108652451075613
1683885703335804400,10.869804443359374,-0.3546072840690613,-0.36880987882614136,0.14340060949325562
1683885703352681000,10.886680908203125,0.31031954288482666,-0.4034765064716339,-0.058795779943466187
1683885703369550800,10.90355078125,1.1818715333938599,0.05421429127454758,-0.394618958234787
1683885703386433300,10.920433349609375,1.5402966737747192,0.7292203903198242,-0.6702718734741211
1683885703403307000,10.93730712890625,0.9651671051979065,0.8672759532928467,-0.6831000447273254
1683885703420178000,10.954177978515625,-0.32589662075042725,0.28787025809288025,-0.7631233930587769
1683885703437050000,10.971050048828126,-1.2229522466659546,-0.04886921867728233,-1.8102991580963135
1683885703453922600,10.987922607421876,-1.158505916595459,0.7979426980018616,-2.1817052364349365
1683885703470796500,11.004796630859374,-0.9558513760566711,1.1945469379425049,-1.9182696342468262
1683885703487667500,11.02166748046875,-0.7157813310623169,1.3058772087097168,-1.1943942308425903
1683885703504537900,11.038537841796876,-0.4153883755207062,1.3768903017044067,-0.4167627990245819
1683885703521415000,11.055414794921875,-0.37339138984680176,1.4028520584106445,0.0354301854968071
1683885703538286000,11.0722861328125,-0.2477058619260788,1.64414381980896,0.26908615231513977
1683885703555146500,11.089146484375,0.0032070425804704428,1.7084373235702515,0.33292156457901
1683885703572030200,11.1060302734375,-0.1033889427781105,0.9511171579360962,0.44944411516189575
1683885703588885000,11.122885009765625,-0.4948008358478546,0.09040805697441101,0.6279694437980652
1683885703605775600,11.139775634765625,-0.6349944472312927,-0.19914206862449646,0.7962628602981567
1683885703622646800,11.156646728515625,-0.5552765130996704,-0.2047925740480423,0.9392052888870239
1683885703639519700,11.173519775390625,-0.5241223573684692,-0.10903944820165634,0.9856310486793518
1683885703656378600,11.190378662109374,-0.6913467645645142,-0.09269879758358002,0.8936958312988281
1683885703673255400,11.20725537109375,-0.9043859839439392,-0.34376442432403564,0.6827946305274963
1683885703690126600,11.224126708984375,-0.9813550114631653,-0.5117523670196533,0.4340197443962097
1683885703706999000,11.2409990234375,-0.9039278626441956,-0.4948008358478546,0.30802878737449646
1683885703723875300,11.257875244140624,-0.6866125464439392,-0.48548516631126404,0.4401284158229828
1683885703740749300,11.274749267578125,-0.5355761051177979,-0.3396410644054413,0.7009678483009338
1683885703757615600,11.29161572265625,-0.6055201888084412,0.022449297830462456,0.9133962392807007
1683885703774494200,11.308494140625,-0.6754642724990845,0.4207334518432617,1.0812314748764038
1683885703791357400,11.325357421875,-0.6165157556533813,0.8016079068183899,1.2060006856918335
1683885703808234200,11.342234130859374,-0.5151121020317078,1.0655016899108887,1.298241376876831
1683885703825109800,11.35910986328125,-0.45814892649650574,1.1476631164550781,1.374599575996399
1683885703841981700,11.375981689453125,-0.38896843791007996,0.3355177342891693,1.874745488166809
1683885703858852000,11.39285205078125,-0.4521929919719696,-1.736537218093872,2.8151724338531494
1683885703875726000,11.40972607421875,-0.6165157556533813,-2.6262624263763428,2.6876542568206787
1683885703892595700,11.426595703125,-0.48227810859680176,-2.7598891258239746,2.0022635459899902
1683885703909468200,11.44346826171875,-0.20097467303276062,-2.643213987350464,1.268919825553894
1683885703926340900,11.4603408203125,-0.0009162978967651725,-2.297616958618164,0.6380487680435181
1683885703943213000,11.477213134765625,0.11636982858181,-1.7831156253814697,0.1973094791173935
1683885703960084200,11.494084228515625,0.26083946228027344,-1.2681562900543213,0.16722436249256134
1683885703976960300,11.510960205078124,0.55069500207901,-1.7088955640792847,1.430799126625061
1683885703993829400,11.527829345703125,0.30375275015830994,-2.2128593921661377,2.004707098007202
1683885704010715400,11.54471533203125,0.22708915174007416,-2.32586932182312,1.4069753885269165
1683885704027584000,11.561583984375,0.6582072973251343,-2.464535713195801,0.7603744864463806
1683885704044456700,11.578456787109374,0.9750936627388,-4.05858850479126,1.3880385160446167
1683885704061328600,11.59532861328125,1.098183035850525,-8.13244915008545,1.8029687404632568
1683885704078198300,11.6121982421875,1.597107172012329,-7.624972820281982,1.3060299158096313
1683885704095067400,11.6290673828125,2.579684019088745,-2.1291708946228027,-0.5952881574630737
1683885704111946200,11.6459462890625,3.322648763656616,0.14813482761383057,-2.4550673961639404
1683885704128817200,11.662817138671874,3.489262342453003,-0.7032586336135864,-2.7766878604888916
1683885704145693200,11.679693115234375,3.118161678314209,-1.441641926765442,-2.3066272735595703
1683885704162562800,11.696562744140625,2.6308438777923584,-1.5175420045852661,-2.1090123653411865
1683885704179437000,11.71343701171875,2.0862574577331543,-1.2794572114944458,-1.5835154056549072
1683885704196306700,11.730306640625,1.43751859664917,-0.5797111392021179,-0.8243626356124878
1683885704213181700,11.747181640625,0.8781188130378723,0.13759739696979523,-0.08811730891466141
1683885704230050300,11.76405029296875,0.6959282159805298,0.2791654169559479,0.4709770977497101
1683885704246928100,11.78092822265625,0.6472117304801941,-0.16264286637306213,0.671493649482727
1683885704263797500,11.797797607421876,0.5377141237258911,-0.7796167731285095,0.7808384895324707
1683885704280671500,11.81467138671875,0.355981707572937,-0.770301103591919,0.7089090943336487
1683885704297542100,11.831542236328126,0.18845193088054657,-0.04566217586398125,0.5545129179954529
1683885704314415000,11.8484150390625,0.030543262138962746,0.7370089292526245,0.4369213581085205
1683885704331284500,11.865284423828125,-0.07712173461914062,1.0922271013259888,0.4001167416572571
1683885704348163300,11.882163330078125,-0.16432274878025055,1.1346821784973145,0.45692721009254456
1683885704365029000,11.899029052734376,-0.2848159074783325,0.7819074988365173,0.712574303150177
1683885704381907500,11.915907470703125,-0.3439171314239502,0.5829181671142578,1.0190759897232056
1683885704398768400,11.932768310546875,-0.43768495321273804,0.6407976150512695,1.2936599254608154
1683885704415650600,11.949650634765625,-0.7174612283706665,0.5714644193649292,1.4830280542373657
1683885704432533000,11.966532958984375,-1.2092077732086182,-0.03985895588994026,1.3972015380859375
1683885704449394400,11.98339453125,-1.7658586502075195,-1.5322027206420898,1.0980303287506104
1683885704466266000,12.00026611328125,-1.926210880279541,-2.6195428371429443,1.2244794368743896
1683885704483139800,12.017139892578125,-1.5326608419418335,-1.8987219333648682,1.4903584718704224
1683885704500011000,12.034010986328125,-0.6288857460021973,-0.054825156927108765,0.8741481900215149
1683885704516883700,12.0508837890625,0.7738135457038879,1.4504995346069336,-0.275347501039505
1683885704533755600,12.067755615234375,1.6383405923843384,1.0276280641555786,-1.3359622955322266
1683885704550630000,12.0846298828125,1.8015943765640259,-0.6056728959083557,-2.0734293460845947
1683885704567500500,12.10150048828125,1.3868168592453003,-1.6409367322921753,-2.853198766708374
1683885704584373000,12.118373046875,0.8358163833618164,-0.8726209998130798,-2.842355966567993
1683885704601245200,12.1352451171875,0.3397938013076782,0.07208210229873657,-1.9830212593078613
1683885704618119200,12.152119140625,0.00809396430850029,0.5655084848403931,-1.4220943450927734
1683885704634990000,12.168989990234374,-0.2565633952617645,0.7473936080932617,-0.9376781582832336
1683885704651863000,12.185863037109375,-0.3220787048339844,0.988074541091919,-0.589179515838623
1683885704668734500,12.202734375,-0.13836097717285156,0.8833111524581909,-0.346818745136261
1683885704685595600,12.219595703125,-0.04764748737215996,0.3045163154602051,-0.018325956538319588
1683885704702482200,12.236482177734375,-0.3588833212852478,-0.46960264444351196,0.28267788887023926
1683885704719357700,12.253357666015624,-0.6867652535438538,-0.6461427211761475,0.575893223285675
1683885704736214000,12.270214111328125,-0.698066234588623,-0.2041817009449005,0.7553348541259766
1683885704753098200,12.28709814453125,-0.7348709106445312,0.11575896292924881,0.7819074988365173
1683885704769969400,12.303969482421875,-0.8802568316459656,0.1745547503232956,0.7644978761672974
1683885704786831600,12.32083154296875,-1.0870347023010254,0.03726277872920036,0.7872526049613953
1683885704803713800,12.3377138671875,-1.1896600723266602,-0.13866640627384186,0.8396342992782593
1683885704820588000,12.354588134765624,-1.2530373334884644,-0.3084869384765625,0.9506590366363525
1683885704837449000,12.371448974609375,-1.5978707075119019,-2.3014347553253174,2.386650562286377
1683885704854331600,12.38833154296875,-1.7649424076080322,-3.5969271659851074,3.137861967086792
1683885704871203800,12.405203857421874,-1.5972598791122437,-3.280651807785034,2.677116870880127
1683885704888077300,12.422077392578124,-1.4575244188308716,-2.509281635284424,1.9938641786575317
1683885704904945700,12.438945556640626,-1.584126353263855,-1.6586518287658691,1.920865774154663
1683885704921822500,12.455822509765625,-1.6522377729415894,-0.9198103547096252,2.833345651626587
1683885704938694400,12.4726943359375,-1.0664180517196655,-0.2675589919090271,2.954144239425659
1683885704955566800,12.48956689453125,-0.27091872692108154,-0.5490151643753052,2.512030601501465
1683885704972438000,12.50643798828125,0.3703370690345764,-1.8777997493743896,1.697441816329956
1683885704989300200,12.52330029296875,0.8602510094642639,-2.2284364700317383,0.7392996549606323
1683885705006182700,12.5401826171875,1.1968377828598022,-1.1505646705627441,0.22388210892677307
1683885705023056600,12.557056640625,1.2108876705169678,0.055894169956445694,-0.4222606122493744
1683885705039927600,12.573927490234375,0.9666942358016968,0.6736316680908203,-1.2296717166900635
1683885705056800300,12.59080029296875,0.7293730974197388,1.078940749168396,-1.816102385520935
1683885705073672200,12.607672119140625,0.6238461136817932,1.548237919807434,-2.0697641372680664
1683885705090546000,12.6245458984375,0.6133087277412415,2.0277671813964844,-2.110081195831299
1683885705107416800,12.641416748046876,0.5991060733795166,2.43949031829834,-2.0790798664093018
1683885705124289800,12.658289794921876,0.48716503381729126,2.7311785221099854,-1.9860756397247314
1683885705141161700,12.67516162109375,0.3019201457500458,2.8348729610443115,-1.8475619554519653
1683885705158035700,12.69203564453125,0.18157969415187836,2.503478527069092,-1.5832099914550781
1683885705174903800,12.70890380859375,0.19257527589797974,1.5900822877883911,-1.1496484279632568
1683885705191782100,12.7257822265625,0.2431243658065796,0.6053674817085266,-0.7611380815505981
1683885705208651300,12.7426513671875,0.27091872692108154,-0.1840231567621231,-0.5106833577156067
1683885705225525200,12.759525146484375,0.23671028017997742,-1.062447428703308,-0.26801711320877075
1683885705242396000,12.77639599609375,0.15454891324043274,-2.057394027709961,0.09010262042284012
1683885705259269000,12.79326904296875,0.08414668589830399,-2.6343562602996826,0.44837507605552673
1683885705276138200,12.81013818359375,0.03497203439474106,-2.333505153656006,0.6236934065818787
1683885705293017600,12.827017578125,-0.08903361111879349,-1.5853480100631714,0.7301366925239563
1683885705309883000,12.8438828125,-0.31093040108680725,-0.6963863968849182,0.8095491528511047
1683885705326761200,12.86076123046875,-0.5138903856277466,0.08002334833145142,0.8588765263557434
1683885705343630300,12.87763037109375,-0.675616979598999,0.6041457056999207,0.8413141369819641
1683885705360507100,12.894507080078125,-0.8655960559844971,0.8651378750801086,0.7344127297401428
1683885705377372700,12.91137255859375,-1.0740537643432617,0.9728028774261475,0.5308418869972229
1683885705394248200,12.928248291015626,-1.2084441184997559,1.0441213846206665,0.2646573781967163
1683885705411119000,12.945119140625,-1.2064588069915771,1.141707181930542,0.016035212203860283
1683885705427995000,12.961994873046875,-1.0945178270339966,1.310611367225647,-0.13530665636062622
1683885705444862200,12.9788623046875,-1.1630873680114746,0.8449793457984924,1.1423180103302002
1683885705461738000,12.995738037109374,-1.1476631164550781,-0.543059229850769,2.2742512226104736
1683885705478594300,13.01259423828125,-0.7889324426651001,-1.7605136632919312,1.6687310934066772
1683885705495483600,13.029483642578125,-0.15653422474861145,-3.3880114555358887,0.5960517525672913
1683885705512354300,13.046354248046875,0.8176431059837341,-4.672813892364502,0.1765400618314743
1683885705529217000,13.063217041015625,1.6965254545211792,-3.9513819217681885,0.6391177773475647
1683885705546092300,13.08009228515625,1.8496999740600586,-2.4996604919433594,0.16554448008537292
1683885705562973200,13.09697314453125,1.3758212327957153,-1.4243850708007812,-2.1119139194488525
1683885705579844000,13.113843994140625,1.0978775024414062,-1.1983648538589478,-3.977496385574341
1683885705596716800,13.130716796875,0.9998337030410767,-1.2229522466659546,-3.4516940116882324
1683885705613589200,13.14758935546875,0.9250026941299438,-0.25702154636383057,-2.3739750385284424
1683885705630463000,13.164462890625,0.7900014519691467,-0.08765916526317596,-2.138333797454834
1683885705647333400,13.18133349609375,0.7699956297874451,-1.1119275093078613,-1.9419406652450562
1683885705664206300,13.198206298828126,0.9404270648956299,-2.197587728500366,-1.3625348806381226
1683885705681078500,13.21507861328125,1.1368201971054077,-2.1962132453918457,-0.4951062798500061
1683885705697952300,13.2319521484375,0.8845328688621521,-1.260062336921692,0.30512720346450806
1683885705714820400,13.2488203125,0.30711251497268677,-0.26053401827812195,0.9321803450584412
1683885705731699000,13.265698974609375,-0.024434609338641167,0.6075055003166199,1.3903292417526245
1683885705748567800,13.28256787109375,-0.2557998299598694,0.9292787313461304,1.7179057598114014
1683885705765441800,13.29944189453125,-0.3985895812511444,0.18616119027137756,1.845423936843872
1683885705782302200,13.31630224609375,-0.2802344262599945,-0.8193230032920837,1.479362964630127
1683885705799175200,13.333175048828124,0.07406741380691528,-0.59803706407547,0.7104362845420837
1683885705816057300,13.350057373046875,0.27030786871910095,0.04795292019844055,0.03222314268350601
1683885705832931600,13.366931640625,0.2513710558414459,0.342237263917923,-0.266184538602829
1683885705849802500,13.383802490234375,0.22479841113090515,0.5320636034011841,-0.32559117674827576
1683885705866675000,13.400675048828125,0.3049744665622711,0.627358615398407,-0.2275473028421402
1683885705883547000,13.417546875,0.4054618179798126,0.6041457056999207,0.11056660860776901
1683885705900413400,13.434413330078126,0.4444044530391693,0.2909245789051056,0.6398813724517822
1683885705917291800,13.451291748046875,0.49205195903778076,-0.2874121069908142,1.2353222370147705
1683885705934164700,13.468164794921876,0.5094616413116455,-0.694248378276825,1.8162550926208496
1683885705951037000,13.485036865234376,0.4375322461128235,-0.9222537875175476,2.294562578201294
1683885705967897300,13.5018974609375,0.3703370690345764,-1.189354658126831,2.5247061252593994
1683885705984782800,13.518782958984374,0.3387247920036316,-1.3949108123779297,2.252871036529541
1683885706001655300,13.5356552734375,0.4092797040939331,-1.06351637840271,1.6004669666290283
1683885706018537500,13.552537353515625,0.5972734689712524,-0.26603180170059204,0.9702067375183105
1683885706035400200,13.569400146484375,0.7951938509941101,0.15500704944133759,0.508698046207428
1683885706052271000,13.58627099609375,0.8897252082824707,0.3436116874217987,0.07757988572120667
1683885706069133300,13.60313330078125,0.85994553565979,0.6766859889030457,-0.35353827476501465
1683885706086015700,13.620015625,0.7817547917366028,0.82207190990448,-0.59803706407547
1683885706102889500,13.636889404296875,0.7021896243095398,0.6223189830780029,-0.5067127346992493
1683885706119760400,13.653760498046875,0.6783658266067505,0.3248275816440582,-0.17012597620487213
1683885706136633300,13.67063330078125,0.6568328738212585,0.11071932315826416,0.2243402600288391
1683885706153505300,13.68750537109375,0.5157229900360107,-0.3361285924911499,0.3669773042201996
1683885706170368500,13.704368408203125,0.403781920671463,-0.7825183868408203,0.2171625941991806
1683885706187249000,13.721248779296875,0.29794952273368835,-0.7037167549133301,0.06001751124858856
1683885706204124200,13.738124267578126,0.07452555745840073,-0.5833762884140015,-0.09269879758358002
1683885706220994800,13.754994873046876,-0.23411411046981812,-0.8002334833145142,-0.304210901260376
1683885706237868500,13.77186865234375,-0.4893030524253845,-0.9440922141075134,-0.4888449013233185
1683885706254737000,13.78873681640625,-0.6597344875335693,-0.8103127479553223,-0.5641340613365173
1683885706271604700,13.805604736328124,-0.7751879692077637,-0.7373143434524536,-0.5746715068817139
1683885706288484400,13.822484375,-0.8533787727355957,-0.8542950749397278,-0.5325217843055725
1683885706305358000,13.839358154296875,-0.9558513760566711,-1.1406381130218506,-0.4231768846511841
1683885706322229200,13.856229248046875,-1.0615310668945312,-1.5277739763259888,-0.21868975460529327
1683885706339091500,13.873091552734374,-1.1081095933914185,-1.8573358058929443,0.023365596309304237
1683885706355974000,13.889973876953125,-1.10139000415802,-2.0117318630218506,0.1797471046447754
1683885706372847900,13.906847900390625,-1.083064079284668,-2.0163135528564453,0.17852537333965302
1683885706389718800,13.92371875,-1.0821478366851807,-1.9257526397705078,0.021991148591041565
1683885706406589700,13.940589599609375,-1.152855396270752,-1.7854063510894775,-0.23365595936775208
1683885706423463000,13.957462890625,-1.2782355546951294,-1.5688546895980835,-0.5250386595726013
1683885706440340200,13.97434033203125,-1.3730723857879639,-1.2524265050888062,-0.7513642311096191
1683885706457208300,13.991208251953125,-1.4914275407791138,-0.8158105611801147,-0.8930850028991699
1683885706474081000,14.0080810546875,-1.6380351781845093,-0.5167919993400574,-0.9060658812522888
1683885706490953200,14.024953125,-1.7397441864013672,-0.5740606188774109,-0.7959573864936829
1683885706507827500,14.041827392578124,-1.694387435913086,-0.7586946487426758,-0.6450737118721008
1683885706524687600,14.0586875,-1.5320500135421753,-0.8585711121559143,-0.4651738703250885
1683885706541567000,14.07556689453125,-1.3716979026794434,-0.9631817936897278,-0.21212296187877655
1683885706558442500,14.0924423828125,-1.2053898572921753,-1.0306823253631592,0.07101308554410934
1683885706575316500,14.10931640625,-1.0419833660125732,-1.0555751323699951,0.3805690407752991
1683885706592184600,14.1261845703125,-0.846659243106842,-1.2315043210983276,0.6687447428703308
1683885706609052700,14.143052734375,-0.6276640295982361,-1.6659822463989258,0.8629998564720154
1683885706625932000,14.15993212890625,-0.4121813178062439,-2.1539108753204346,1.0642799139022827
1683885706642803500,14.176803466796875,-0.28817567229270935,-2.4944682121276855,1.2782355546951294
1683885706659679700,14.1936796875,-0.28038713335990906,-2.5696046352386475,1.486693263053894
1683885706676549600,14.210549560546875,-0.3744603991508484,-2.3574817180633545,1.620778203010559
1683885706693418800,14.227418701171874,-0.5212207436561584,-2.11283016204834,1.6740761995315552
1683885706710298600,14.244298583984374,-0.4870123267173767,-1.7751743793487549,1.6285667419433594
1683885706727166500,14.26116650390625,-0.32849279046058655,-1.43751859664917,1.538464069366455
1683885706744036600,14.27803662109375,-0.14385876059532166,-1.100015640258789,1.3585642576217651
1683885706760914000,14.294913818359374,0.014813481830060482,-0.8872817754745483,1.459815263748169
1683885706777785300,14.311785400390624,0.18478673696517944,-0.8559749126434326,1.9837849140167236
1683885706794655700,14.32865576171875,0.30146199464797974,-1.4572190046310425,2.15543794631958
1683885706811529000,14.345529052734374,0.41859540343284607,-2.7870726585388184,1.6061174869537354
1683885706828400600,14.362400634765624,0.6840163469314575,-2.63191294670105,0.9790642857551575
1683885706845275000,14.37927490234375,1.0659598112106323,-1.517236590385437,0.4830417037010193
1683885706862126800,14.396126953125,1.3139711618423462,-0.521984338760376,0.28909197449684143
1683885706879007700,14.4130078125,1.3625348806381226,0.20433442294597626,0.13607023656368256
1683885706895890200,14.42989013671875,1.1948524713516235,0.6409503817558289,0.00366519158706069
1683885706912764700,14.4467646484375,0.9579893946647644,0.9430232048034668,-0.02779436856508255
1683885706929635300,14.46363525390625,0.6823364496231079,0.9781479835510254,0.02733621932566166
1683885706946507800,14.4805078125,0.3104722499847412,0.6957755088806152,0.13057245314121246
1683885706963379700,14.497379638671875,-0.14355333149433136,0.3068070709705353,0.30314189195632935
1683885706980253700,14.514253662109375,-0.43279802799224854,-0.04001167416572571,0.5082398653030396
1683885706997124600,14.53112451171875,-0.4349360466003418,-0.24358251690864563,0.6815729141235352
1683885707013997600,14.54799755859375,-0.3257438838481903,-0.3833179473876953,0.7881689071655273
1683885707030869800,14.564869873046876,-0.2912299931049347,-0.7067710757255554,0.8365799784660339
1683885707047743200,14.5817431640625,-0.3576616048812866,-1.1989758014678955,0.8568912148475647
1683885707064614100,14.5986142578125,-0.3952298164367676,-1.6026049852371216,0.8768970370292664
1683885707081487400,14.6154873046875,-0.3914119005203247,-1.7786868810653687,0.9277516007423401
1683885707098358800,14.63235888671875,-0.365755558013916,-1.8077030181884766,0.9963212013244629
1683885707115233000,14.64923291015625,-0.3237585723400116,-1.7502816915512085,1.0497719049453735
1683885707132101400,14.666101318359376,-0.3170390725135803,-1.7114917039871216,1.0644327402114868
1683885707148968700,14.68296875,-0.33307427167892456,-1.7708983421325684,1.0607675313949585
1683885707165848300,14.699848388671874,-0.3706424832344055,-1.868789553642273,1.03984534740448
1683885707182713900,14.7167138671875,-0.38759398460388184,-1.9489655494689941,1.0009026527404785
1683885707199583000,14.7335830078125,-0.3819434940814972,-2.0227274894714355,0.9518807530403137
1683885707216458500,14.75045849609375,-0.33918291330337524,-2.0952677726745605,0.9187413454055786
1683885707233333200,14.767333251953126,-0.3090978264808655,-2.152536392211914,0.8988882303237915
1683885707250202000,14.7842021484375,-0.33017265796661377,-2.1568124294281006,0.7999280095100403
1683885707267076000,14.801076171875,-0.3793473243713379,-2.083050489425659,0.6203336715698242
1683885707283947000,14.817947021484375,-0.418748140335083,-1.9763017892837524,0.48517972230911255
1683885707300817700,14.834817626953125,-0.44944411516189575,-1.9196439981460571,0.4882340431213379
1683885707317696800,14.85169677734375,-0.5007568001747131,-1.9326249361038208,0.5997169613838196
1683885707334567200,14.868567138671875,-0.5338962078094482,-1.9984456300735474,0.7693848013877869
1683885707351435000,14.88543505859375,-0.5209153294563293,-2.093129873275757,0.9572258591651917
1683885707368315400,14.9023154296875,-0.489608496427536,-2.1255056858062744,1.0865765810012817
1683885707385187800,14.919187744140626,-0.4938845634460449,-2.104278087615967,1.1133018732070923
1683885707402052900,14.936052978515624,-0.537408709526062,-2.0334177017211914,1.0627528429031372
1683885707418919200,14.952919189453125,-0.5528330206871033,-1.8671096563339233,0.983340322971344
1683885707435798000,14.969798095703124,-0.4703662395477295,-1.5893186330795288,0.9436340928077698
1683885707452671200,14.986671142578125,-0.3026837408542633,-1.2605204582214355,0.983951210975647
1683885707469542000,15.0035419921875,-0.20830504596233368,-0.9714284539222717,1.05404794216156
1683885707486420200,15.020420166015626,-0.1996002197265625,-0.7435756921768188,1.0975720882415771
1683885707503288300,15.037288330078125,-0.14477506279945374,-0.5534439086914062,1.1464413404464722
1683885707520160800,15.054160888671875,-0.06536258012056351,-0.42088615894317627,1.2554807662963867
1683885707537031700,15.07103173828125,-0.026572637259960175,-0.3381139039993286,1.3918564319610596
1683885707553902800,15.08790283203125,-0.03084869496524334,-0.30894508957862854,1.5132659673690796
1683885707570776300,15.1047763671875,0.008246680721640587,-0.3263547718524933,1.5958853960037231
1683885707587650000,15.121650146484376,0.09407325088977814,-0.5491678714752197,1.7122552394866943
1683885707604524000,15.13852392578125,0.1736384481191635,-1.7269160747528076,2.244776964187622
1683885707621398300,15.155398193359375,0.11636982858181,-3.006984233856201,2.66642689704895
1683885707638271500,15.172271484375,0.0012217304902151227,-3.5216381549835205,2.498897075653076
1683885707655138800,15.189138916015626,0.056352317333221436,-3.5098788738250732,2.0815234184265137
1683885707672017000,15.206016845703125,0.17104226350784302,-3.252704620361328,1.668120265007019
1683885707688876800,15.222876708984375,0.23579397797584534,-2.9497156143188477,1.333213448524475
1683885707705758700,15.2397587890625,0.28435778617858887,-2.680171251296997,1.1640037298202515
1683885707722632700,15.2566328125,0.3735440969467163,-3.0772337913513184,1.500590443611145
1683885707739499800,15.273499755859374,0.5314527750015259,-3.7982072830200195,2.0952677726745605
1683885707756375800,15.290375732421875,0.5745187401771545,-3.6502251625061035,2.1813998222351074
1683885707773244700,15.30724462890625,0.698066234588623,-2.8829784393310547,1.8138116598129272
1683885707790120700,15.32412060546875,1.0516045093536377,-2.359314203262329,1.4584407806396484
1683885707807001300,15.34100146484375,1.3585642576217651,-3.104111671447754,1.5445728302001953
1683885707823871700,15.357871826171875,1.1982121467590332,-3.4387130737304688,1.345583438873291
1683885707840744000,15.374743896484375,0.9752463698387146,-2.425440549850464,0.7451028823852539
1683885707857617700,15.39161767578125,0.8732318878173828,-1.415374755859375,0.04337143152952194
1683885707874485500,15.408485595703125,0.8394815921783447,-1.1091785430908203,-0.5703954100608826
1683885707891353900,15.425353759765626,0.5713117122650146,-0.8888089060783386,-0.960280179977417
1683885707908233200,15.442233154296876,0.06627888232469559,-0.5584835410118103,-1.2608258724212646
1683885707925104600,15.459104736328126,-0.46670106053352356,-0.06505715101957321,-1.524566888809204
1683885707941980700,15.475980712890625,-0.8216137290000916,0.3856086730957031,-1.7858645915985107
1683885707958851000,15.49285107421875,-0.9106473922729492,0.717308521270752,-2.048383951187134
1683885707975721000,15.509720947265626,-0.9057604670524597,0.7924449443817139,-2.1616992950439453
1683885707992598500,15.5265986328125,-0.9538660645484924,0.8182539939880371,-1.895362138748169
1683885708009467600,15.543467529296874,-1.1438452005386353,0.9483683109283447,-1.2672399282455444
1683885708026340400,15.56034033203125,-1.549154281616211,1.1215485334396362,-0.7127270102500916
1683885708043209700,15.577209716796874,-1.9398025274276733,1.4159855842590332,-0.4222606122493744
1683885708060089000,15.594089111328126,-2.0760254859924316,1.8573358058929443,-0.28695395588874817
1683885708076957200,15.610957275390625,-2.0584630966186523,2.007150411605835,-0.020463986322283745
1683885708093830000,15.627829833984375,-1.9272798299789429,1.5702290534973145,0.2652682363986969
1683885708110701800,15.644701904296875,-1.6250542402267456,1.0648908615112305,0.5419901609420776
1683885708127575600,15.661575439453125,-1.2889256477355957,0.8561276197433472,0.8828529715538025
1683885708144446700,15.67844677734375,-1.1798862218856812,0.9112582206726074,1.1733194589614868
1683885708161319700,15.695319580078126,-1.2166908979415894,1.0910053253173828,1.2403619289398193
1683885708178191400,15.71219140625,-1.2147055864334106,1.292590856552124,1.112385630607605
1683885708195065300,15.7290654296875,-1.1870639324188232,1.485166072845459,0.9411906003952026
1683885708211936300,15.745936279296876,-1.3093897104263306,1.5709927082061768,0.769690215587616
1683885708228809000,15.76280908203125,-1.4789047241210938,1.5195273160934448,0.4625777006149292
1683885708245683000,15.779682861328125,-1.5305228233337402,1.1693488359451294,0.05726861581206322
1683885708262555000,15.796554931640625,-1.4230105876922607,0.7192938327789307,-0.12599095702171326
1683885708279425800,15.81342578125,-1.4039210081100464,0.3338378667831421,0.10873401165008545
1683885708296298500,15.830298583984375,-1.5210545063018799,-0.28756481409072876,0.6290385127067566
1683885708313170400,15.84717041015625,-1.4622586965560913,-0.7919867634773254,0.9870055317878723
1683885708330044400,15.86404443359375,-1.149953842163086,-0.8726209998130798,0.7116580009460449
1683885708346915000,15.8809150390625,-0.5969680547714233,-0.5337435007095337,0.13072516024112701
1683885708363788000,15.8977880859375,-0.09514226019382477,-0.18127426505088806,-0.13072516024112701
1683885708380659700,15.91465966796875,0.15012013912200928,0.11178833991289139,0.04993823543190956
1683885708397534000,15.931533935546875,0.24236078560352325,0.44196099042892456,0.3536909818649292
1683885708414404600,15.948404541015625,0.31413745880126953,0.8856018781661987,0.5474879741668701
1683885708431277800,15.96527783203125,0.33368512988090515,1.3709343671798706,0.7573201656341553
1683885708448149200,15.982149169921875,0.18997909128665924,1.9295705556869507,1.0945178270339966
1683885708465020700,15.999020751953125,0.016798794269561768,2.6674957275390625,1.209971308708191
1683885708481886200,16.01588623046875,0.006719517521560192,3.2922582626342773,0.7383833527565002
1683885708498756600,16.032756591796876,0.02733621932566166,3.886477470397949,-0.3706424832344055
1683885708515638800,16.049638671875,-0.21563543379306793,3.243389129638672,-0.9584475755691528
1683885708532516000,16.06651611328125,-0.31902438402175903,1.2435688972473145,-0.2373211532831192
1683885708549386500,16.083386474609377,0.13958270847797394,-0.5500841736793518,0.7435756921768188
1683885708566256400,16.10025634765625,0.5789475440979004,0.15729780495166779,0.6708827614784241
1683885708583141000,16.11714111328125,0.3404046595096588,0.8103127479553223,-0.06887505948543549
1683885708600002600,16.13400244140625,-0.4050036668777466,0.5244278311729431,-0.579405665397644
1683885708616873000,16.150873046875,-1.031293272972107,0.8080220222473145,-0.7235698699951172
1683885708633759500,16.167759521484374,-1.2418889999389648,0.8411614298820496,-0.7202101349830627
1683885708650618000,16.1846181640625,-0.7359399199485779,1.2990049123764038,-0.6407976150512695
1683885708667491800,16.201491943359375,0.03344487398862839,2.1177170276641846,-0.1788308024406433
1683885708684362500,16.218362548828125,0.4772384762763977,2.447584390640259,0.6464481353759766
1683885708701235500,16.2352353515625,0.6678284406661987,1.8364136219024658,1.5117387771606445
1683885708718107400,16.252107421875,0.7284567952156067,0.5731443166732788,1.9671387672424316
1683885708734978800,16.268978759765623,0.7875580191612244,0.2223549485206604,1.3535246849060059
1683885708751849200,16.28584912109375,0.5247332453727722,0.6117815375328064,0.23808473348617554
1683885708768739600,16.302739501953123,-0.12202033400535583,0.5158756971359253,-0.3778201639652252
1683885708785595000,16.319594970703125,-0.44058656692504883,0.836885392665863,-0.508698046207428
1683885708802470700,16.336470703125,-0.4147774875164032,0.9810495972633362,-0.3445279896259308
1683885708819341800,16.353341796875,-0.380721777677536,0.2538145184516907,-0.19288070499897003
1683885708836214300,16.37021435546875,-0.30573806166648865,-0.5774203538894653,-0.35155296325683594
1683885708853086700,16.387086669921874,-0.14034628868103027,-0.7487680912017822,-0.6372851729393005
1683885708869960400,16.40396044921875,-0.03726277872920036,-0.5540547966957092,-0.8037459254264832
1683885708886832400,16.420832275390627,-0.019394971430301666,-0.4726569950580597,-0.6623306274414062
1683885708903702500,16.43770263671875,-0.039248090237379074,-0.7625125646591187,-0.16401731967926025
1683885708920575700,16.45457568359375,0.0013744467869400978,-1.6126842498779297,0.5673410892486572
1683885708937439200,16.471439208984375,0.23060162365436554,-2.4028384685516357,1.114981770515442
1683885708954320600,16.488320556640623,0.546571671962738,-2.5581510066986084,1.2498302459716797
1683885708971193600,16.505193603515625,0.6736316680908203,-2.1621575355529785,1.1354458332061768
1683885708988056300,16.522056396484373,0.5809328556060791,-1.470963478088379,0.912938117980957
1683885709004928000,16.538927978515623,0.43875396251678467,-0.8914051055908203,0.5859724879264832
1683885709021813000,16.55581298828125,0.22937989234924316,-0.49846604466438293,0.17760907113552094
1683885709038683000,16.572682861328126,-0.005192354787141085,-0.19043724238872528,-0.26343563199043274
1683885709055554600,16.589554443359376,-0.1258382350206375,0.04688390716910362,-0.7312057018280029
1683885709072428800,16.6064287109375,-0.22907446324825287,0.11591167747974396,-1.2108876705169678
1683885709089289000,16.6232890625,-0.4008803069591522,-0.08521570265293121,-1.630552053451538
1683885709106169900,16.640169921875,-0.6426302194595337,-0.5511531829833984,-1.9811886548995972
1683885709123047200,16.657047119140625,-0.851393461227417,-1.2655600309371948,-2.2174408435821533
1683885709139918300,16.67391845703125,-0.9601274728775024,-2.085646629333496,-2.3906211853027344
1683885709156787700,16.69078759765625,-0.9059131741523743,-2.847090244293213,-2.4776694774627686
1683885709173662700,16.707662841796875,-1.0958921909332275,-3.0616567134857178,-1.7064520120620728
1683885709190534100,16.7245341796875,-1.178359031677246,-2.579072952270508,-0.11239920556545258
1683885709207407900,16.741407958984375,-1.1074986457824707,-1.9526307582855225,1.1679743528366089
1683885709224278000,16.758278076171877,-0.9709703326225281,-1.179275393486023,1.3385584354400635
1683885709241151500,16.7751513671875,-1.0051788091659546,-0.2617557644844055,0.9975429177284241
1683885709258024400,16.7920244140625,-0.9728028774261475,0.8106181621551514,0.6464481353759766
1683885709274893000,16.80889306640625,-0.875064492225647,1.3907874822616577,0.6096435189247131
1683885709291770400,16.825770263671874,-0.6997461318969727,1.578475832939148,0.807563841342926
1683885709308640800,16.842640869140624,-0.5085453391075134,1.5323554277420044,1.0658071041107178
1683885709325512700,16.8595126953125,-0.2200642079114914,1.6785049438476562,1.2055425643920898
1683885709342386700,16.87638671875,0.07773260027170181,2.229810953140259,1.3605495691299438
1683885709359257600,16.893257568359374,0.4349360466003418,2.8484647274017334,1.5596916675567627
1683885709376130300,16.91013037109375,0.7922922372817993,3.3099732398986816,1.7605136632919312
1683885709393002000,16.927001953125,1.0309878587722778,3.487429618835449,1.9100228548049927
1683885709409876000,16.9438759765625,1.1714868545532227,3.316234588623047,1.9646953344345093
1683885709426746600,16.96074658203125,1.2098186016082764,2.758209228515625,1.8559613227844238
1683885709443619600,16.97761962890625,1.1125383377075195,1.5771013498306274,1.5894713401794434
1683885709460491500,16.994491455078126,0.9392052888870239,0.04245513305068016,1.2942707538604736
1683885709477365500,17.011365478515625,0.7686212062835693,-1.0535898208618164,1.0433578491210938
1683885709494236200,17.028236083984375,0.5771149396896362,-1.3622294664382935,0.8425359129905701
1683885709511096600,17.0450966796875,0.39156460762023926,-1.3144292831420898,0.6603453159332275
1683885709527983600,17.061983642578124,0.1771509200334549,-1.2307407855987549,0.5383250117301941
1683885709544852200,17.078852294921877,-0.12308934330940247,-0.9159924387931824,0.3159700334072113
1683885709561728800,17.095728759765624,-0.5954409241676331,-0.21853704750537872,-0.05772676691412926
1683885709578598700,17.1125986328125,-1.0809260606765747,0.34376442432403564,-0.4112650156021118
1683885709595470600,17.129470703125,-1.2760975360870361,0.2646573781967163,-0.5187773108482361
1683885709612344600,17.146344482421874,-1.2466232776641846,0.2808452844619751,-0.43020185828208923
1683885709629204700,17.163204833984373,-1.0512990951538086,0.6305656433105469,-0.20586158335208893
1683885709646088000,17.180087890625,-0.8339837789535522,0.82207190990448,-0.029474247246980667
1683885709662959900,17.1969599609375,-0.7687739133834839,0.7360926270484924,-0.05375614017248154
1683885709679833900,17.213833740234374,-0.7473936080932617,0.6743952035903931,-0.10033461451530457
1683885709696704500,17.23070458984375,-0.5946773290634155,0.5134322643280029,-0.03695734590291977
1683885709713567000,17.24756689453125,-0.3286454975605011,0.3170390725135803,0.1241583600640297
1683885709730449700,17.26444970703125,-0.06368270516395569,0.11102475970983505,0.3462078869342804
1683885709747323100,17.2813232421875,0.1336267739534378,-0.13897185027599335,0.5027421116828918
1683885709764191500,17.29819140625,0.23487769067287445,-0.3274237811565399,0.546571671962738
1683885709781067000,17.31506689453125,0.21991148591041565,-0.2941316068172455,0.5722280144691467
1683885709797938700,17.331938720703125,0.17088955640792847,-0.21502456068992615,0.5977316498756409
1683885709814808300,17.348808349609374,0.14798210561275482,-0.1215621829032898,0.5821545720100403
1683885709831686100,17.36568603515625,0.11636982858181,0.04688390716910362,0.49877145886421204
1683885709848556300,17.382556396484375,0.06322455406188965,0.1408044397830963,0.30085113644599915
1683885709865417700,17.399417724609375,-0.04444044828414917,0.19104810059070587,0.03878994286060333
1683885709882302000,17.416302001953124,-0.20586158335208893,0.19013181328773499,-0.1264491081237793
1683885709899164700,17.43316455078125,-0.32986724376678467,0.18524488806724548,-0.15882496535778046
1683885709916045800,17.4500458984375,-0.3692680299282074,0.2503020465373993,-0.10781771689653397
1683885709932914200,17.4669140625,-0.35552358627319336,0.29993483424186707,-0.07238753139972687
1683885709949795300,17.48379541015625,-0.22708915174007416,0.2532036304473877,-0.04566217586398125
1683885709966662400,17.500662353515626,-0.07956519722938538,0.10812314599752426,0.004428773187100887
1683885709983535000,17.51753515625,0.01664607785642147,-0.009773843921720982,0.08231408894062042
1683885710000407000,17.534406982421874,0.055283304303884506,-0.02275473065674305,0.10751228034496307
1683885710017281000,17.551281005859376,0.048105638474226,-0.06994406878948212,-0.007024950347840786
1683885710034151700,17.568151611328126,0.009010262787342072,-0.08277224004268646,-0.13301590085029602
1683885710051025000,17.58502490234375,0.03451388701796532,-0.1976149082183838,-0.18860463798046112
1683885710067896600,17.601896484375,0.08491026610136032,-0.24908030033111572,-0.16584990918636322
1683885710084767000,17.61876708984375,0.11362093687057495,-0.20876319706439972,-0.1869247704744339
1683885710101643000,17.63564306640625,0.13377949595451355,-0.18417587876319885,-0.2503020465373993
1683885710118515700,17.652515625,0.14263702929019928,-0.09300423413515091,-0.2762638032436371
1683885710135386000,17.66938623046875,0.1459967941045761,-0.036041051149368286,-0.2606867551803589
1683885710152260000,17.686260009765626,0.15454891324043274,-0.05650503560900688,-0.28695395588874817
1683885710169120500,17.70312060546875,0.15134187042713165,0.019853120669722557,-0.31810808181762695
1683885710186001000,17.7200009765625,0.15622878074645996,-0.02825251780450344,-0.3816380500793457
1683885710202878000,17.7368779296875,0.13988813757896423,0.04199698567390442,-0.3975205719470978
1683885710219749400,17.753749267578126,0.11728613078594208,0.3196352422237396,-0.33047810196876526
1683885710236620000,17.7706201171875,0.14798210561275482,0.2762638032436371,-0.27779096364974976
1683885710253493000,17.787492919921874,0.23273965716362,-0.015577063895761967,-0.2226603776216507
1683885710270365000,17.804364990234376,0.327729195356369,-0.1241583600640297,-0.14309518039226532
1683885710287238700,17.82123876953125,0.3504839241504669,-0.02825251780450344,-0.10002918541431427
1683885710304109600,17.838109619140624,0.3381139039993286,0.1391245573759079,-0.12400564551353455
1683885710320982300,17.854982177734374,0.35521814227104187,0.09269879758358002,-0.21059578657150269
1683885710337851400,17.871851318359376,0.3620903789997101,-0.08414668589830399,-0.30970868468284607
1683885710354716400,17.88871630859375,0.3003929853439331,-0.06658431142568588,-0.3956879675388336
1683885710371602700,17.905602783203125,0.19333885610103607,0.02733621932566166,-0.47280970215797424
1683885710388469200,17.92246923828125,0.10293079167604446,0.1485929638147354,-0.5528330206871033
1683885710405347000,17.93934716796875,0.10812314599752426,0.28130343556404114,-0.570242702960968
1683885710422216700,17.956216796875,0.21349740028381348,0.24342979490756989,-0.447000652551651
1683885710439078100,17.973078125,0.327729195356369,0.12018773704767227,-0.32528573274612427
1683885710455961000,17.989961181640624,0.3856086730957031,0.012828170321881771,-0.3162754774093628
1683885710472833000,18.0068330078125,0.3929390609264374,-0.050243668258190155,-0.3614795207977295
1683885710489704400,18.023704345703123,0.3972151279449463,-0.027947084978222847,-0.39385536313056946
1683885710506580200,18.040580322265626,0.37491855025291443,0.04444044828414917,-0.3920227587223053
1683885710523450600,18.05745068359375,0.30634891986846924,0.1264491081237793,-0.3738495409488678
1683885710540322600,18.074322509765626,0.19456058740615845,0.23319780826568604,-0.41859540343284607
1683885710557196300,18.0911962890625,0.04306599870324135,0.3562871515750885,-0.5539020895957947
1683885710574067000,18.10806689453125,-0.1108720451593399,0.4268420934677124,-0.7008151412010193
1683885710590952200,18.1249521484375,-0.19486601650714874,0.4329507350921631,-0.7287622094154358
1683885710607811800,18.141811767578126,-0.1966986060142517,0.31612277030944824,-0.5299255847930908
1683885710624673000,18.158673095703126,-0.1547016203403473,-0.036193765699863434,-0.17776179313659668
1683885710641549000,18.175549072265625,-0.11530081182718277,-0.24236078560352325,0.2171625941991806
1683885710658429400,18.192429443359377,-0.0708603709936142,-0.07254024595022202,0.5763513445854187
1683885710675288800,18.209288818359376,-0.07910704612731934,-0.012217304669320583,0.8006916046142578
1683885710692165400,18.226165283203127,-0.1563815027475357,-0.19517144560813904,0.8568912148475647
1683885710709041700,18.243041748046874,-0.2736676335334778,-0.3404046595096588,0.7922922372817993
1683885710725910300,18.25991015625,-0.4260784983634949,-0.35353827476501465,0.6682865619659424
1683885710742785500,18.27678564453125,-0.6013968586921692,-0.28817567229270935,0.47968193888664246
1683885710759654100,18.293654052734375,-0.7432702779769897,-0.20845776796340942,0.2929098904132843
1683885710776526000,18.310526123046873,-0.8223773241043091,-0.08414668589830399,0.2028072625398636
1683885710793400800,18.32740087890625,-0.8309294581413269,0.014508049935102463,0.21044307947158813
1683885710810271200,18.344271240234374,-0.7478517889976501,-0.025961773470044136,0.251676470041275
1683885710827145200,18.361145263671876,-0.5687155723571777,-0.2669481039047241,0.3257438838481903
1683885710844015900,18.378015869140626,-0.31444287300109863,-0.45234572887420654,0.5002986192703247
1683885710860888000,18.39488818359375,-0.044287730008363724,-0.49144110083580017,0.7322747111320496
1683885710877760500,18.411760498046874,0.1895209401845932,-0.5760459303855896,0.8710938692092896
1683885710894634200,18.42863427734375,0.33078351616859436,-0.7354817390441895,0.8837692737579346
1683885710911504400,18.44550439453125,0.36529740691185,-0.6785185933113098,0.835969090461731
1683885710928377000,18.462377197265624,0.3257438838481903,-0.5277875661849976,0.7232644557952881
1683885710945249300,18.479249267578126,0.2148718535900116,-0.5212207436561584,0.5665774941444397
1683885710962124300,18.496124267578125,0.09926560521125793,-0.5580254197120667,0.43188172578811646
1683885710978992400,18.512992431640626,-0.003359758760780096,-0.4531092941761017,0.3355177342891693
1683885710995865900,18.529865966796876,-0.11316278576850891,-0.20051652193069458,0.24266621470451355
1683885711012744000,18.546743896484376,-0.21868975460529327,-0.022449297830462456,0.10125091671943665
1683885711029612000,18.563612060546873,-0.2834414839744568,0.14767667651176453,-0.05100724846124649
1683885711046482700,18.580482666015627,-0.36132678389549255,0.3110831379890442,-0.1411098688840866
1683885711063361800,18.59736181640625,-0.39477166533470154,0.2816088795661926,-0.23258693516254425
1683885711080229600,18.614229736328124,-0.34345898032188416,0.14278975129127502,-0.2935207486152649
1683885711097095700,18.631095703125,-0.23182335495948792,0.13866640627384186,-0.24862214922904968
1683885711113981700,18.647981689453125,-0.06872233748435974,0.1313360333442688,-0.12324206531047821
1683885711130848800,18.664848876953126,0.08429940044879913,-0.030695978552103043,0.031001411378383636
1683885711147715800,18.6817158203125,0.2122756689786911,-0.10094548016786575,0.1189660057425499
1683885711164600800,18.698600830078124,0.2611449062824249,-0.007024950347840786,0.14278975129127502
1683885711181471700,18.7154716796875,0.33047810196876526,-0.039248090237379074,0.06230825558304787
1683885711198344400,18.732344482421876,0.35475999116897583,-0.08979719132184982,-0.06185010448098183
1683885711215216400,18.74921630859375,0.32818734645843506,-0.05207626149058342,-0.1927279829978943
1683885711232087800,18.766087890625,0.26053401827812195,-0.007177666760981083,-0.28435778617858887
1683885711248975600,18.7829755859375,0.1547016203403473,0.06734789162874222,-0.308792382478714
1683885711265833700,18.799833740234376,0.09712757170200348,0.18387043476104736,-0.3251330256462097
1683885711282705700,18.81670556640625,0.11301007121801376,0.26083946228027344,-0.33200526237487793
1683885711299579600,18.83357958984375,0.20066922903060913,0.18478673696517944,-0.3199406862258911
1683885711316450300,18.8504501953125,0.3013092875480652,0.010079276748001575,-0.28787025809288025
1683885711333323300,18.8673232421875,0.3738495409488678,-0.024434609338641167,-0.31062498688697815
1683885711350195200,18.8841953125,0.3805690407752991,0.02886338345706463,-0.35674530267715454
1683885711367068700,18.901068603515625,0.3533855378627777,0.09682214260101318,-0.3874412775039673
1683885711383939600,18.917939697265624,0.32391130924224854,0.16982053220272064,-0.38698312640190125
1683885711400812500,18.9348125,0.313373863697052,0.1612684279680252,-0.3689626157283783
1683885711417684500,18.9516845703125,0.30863967537879944,0.1696678251028061,-0.3579670190811157
1683885711434555600,18.9685556640625,0.2828305959701538,0.24404066801071167,-0.36651915311813354
1683885711451434000,18.98543408203125,0.26710084080696106,0.27550023794174194,-0.40393465757369995
1683885711468302000,19.002302001953126,0.27580565214157104,0.24938572943210602,-0.45066583156585693
1683885711485171000,19.0191708984375,0.303600013256073,0.20555615425109863,-0.4723515510559082
1683885711502050300,19.03605029296875,0.328340083360672,0.14706580340862274,-0.43020185828208923
1683885711518929000,19.052928955078126,0.3306308090686798,0.0507018156349659,-0.34895676374435425
1683885711535791600,19.06979150390625,0.28206703066825867,0.015118914656341076,-0.2981022298336029
1683885711552663000,19.0866630859375,0.19837848842144012,0.11530081182718277,-0.26939156651496887
1683885711569537300,19.103537353515627,0.10583240538835526,0.21013765037059784,-0.21914790570735931
1683885711586408000,19.120407958984377,0.03145955875515938,0.13041973114013672,-0.1495092660188675
1683885711603280600,19.13728076171875,-0.04932736977934837,-0.16569720208644867,-0.01572977937757969
1683885711620150000,19.15414990234375,-0.12186761945486069,-0.3833179473876953,0.20815233886241913
1683885711637028900,19.17102880859375,-0.18387043476104736,-0.1794416606426239,0.44135013222694397
1683885711653897200,19.187897216796873,-0.3039054572582245,0.0455094613134861,0.5635231733322144
1683885711670770200,19.204770263671875,-0.4786129295825958,0.015271631069481373,0.5558874011039734
1683885711687641900,19.221641845703125,-0.6166684627532959,-0.06963863968849182,0.45142942667007446
1683885711704501200,19.238501220703125,-0.7266241908073425,0.051312681287527084,0.3462078869342804
1683885711721386200,19.25538623046875,-0.822682797908783,0.28909197449684143,0.25335636734962463
1683885711738259200,19.27225927734375,-0.8862127661705017,0.3878994286060333,0.12476922571659088
1683885711755131100,19.289131103515626,-0.888350784778595,0.2900082767009735,-0.02076941914856434
1683885711772002600,19.30600244140625,-0.794277548789978,0.14248432219028473,-0.10354165732860565
1683885711788872000,19.322871826171873,-0.5835290551185608,-0.0025961773935705423,-0.03726277872920036
1683885711805748700,19.339748779296876,-0.290313720703125,-0.23945917189121246,0.1823432743549347
1683885711822620700,19.35662060546875,-0.029168816283345222,-0.5018258094787598,0.47311514616012573
1683885711839494700,19.37349462890625,0.16920967400074005,-0.675616979598999,0.7017314434051514
1683885711856365000,19.390364990234374,0.29077184200286865,-0.7156286239624023,0.806647539138794
1683885711873237800,19.40723779296875,0.28985556960105896,-0.6278167366981506,0.8077165484428406
1683885711890110200,19.424110107421875,0.19883663952350616,-0.46379944682121277,0.708450973033905
1683885711906983700,19.440983642578125,0.08475755155086517,-0.31841349601745605,0.5403103232383728
1683885711923854600,19.4578544921875,-0.041233405470848083,-0.21120665967464447,0.34208452701568604
1683885711940727600,19.4747275390625,-0.1719585657119751,-0.00366519158706069,0.14248432219028473
1683885711957588500,19.49158837890625,-0.19379699230194092,0.16203200817108154,0.02122756652534008
1683885711974473000,19.508472900390625,-0.26251932978630066,0.26969701051712036,0.04046982154250145
1683885711991343900,19.52534375,-0.26083946228027344,0.39385536313056946,-0.036193765699863434
1683885712008216800,19.542216796875,-0.21471913158893585,0.17638733983039856,-0.22510384023189545
1683885712025086000,19.5590859375,-0.1388191282749176,-0.04046982154250145,-0.24358251690864563
1683885712041965000,19.575965087890626,0.06398813426494598,-0.21303924918174744,-0.126143679022789
1683885712058833200,19.592833251953124,0.2606867551803589,-0.3136793076992035,0.02015855349600315
1683885712075706000,19.6097060546875,0.37171149253845215,-0.2955060601234436,0.08307767659425735
1683885712092577800,19.626577880859376,0.413097620010376,-0.30543261766433716,0.07941248267889023
1683885712109451800,19.64345166015625,0.3930917978286743,-0.2802344262599945,0.005650503560900688
1683885712126322400,19.660322509765624,0.3384193480014801,-0.23151792585849762,-0.11102475970983505
1683885712143195400,19.6771953125,0.2968805134296417,-0.17669276893138885,-0.16890424489974976
1683885712160067300,19.6940673828125,0.28069257736206055,-0.06551529467105865,-0.1742493063211441
1683885712176941000,19.710941162109375,0.2638937830924988,0.06933320313692093,-0.1898263692855835
1683885712193812000,19.72781201171875,0.2451096773147583,0.16630806028842926,-0.2580905556678772
1683885712210676000,19.744676025390625,0.22342395782470703,0.18555031716823578,-0.35323283076286316
1683885712227545900,19.7615458984375,0.2116648107767105,0.12339477986097336,-0.44165557622909546
1683885712244430300,19.778430419921875,0.2151772826910019,0.02733621932566166,-0.49235737323760986
1683885712261301200,19.79530126953125,0.24663683772087097,-0.013897184282541275,-0.47937649488449097
1683885712278160000,19.812159912109376,0.28985556960105896,0.02733621932566166,-0.3825543522834778
1683885712295050000,19.829050048828126,0.3413209617137909,0.09422596544027328,-0.2814561724662781
1683885712311919900,19.845919921875,0.37598755955696106,0.1388191282749176,-0.25793784856796265
1683885712328780000,19.862780029296875,0.3776674270629883,0.14355333149433136,-0.2942843437194824
1683885712345663200,19.879663330078124,0.3520110845565796,0.14385876059532166,-0.33689218759536743
1683885712362535200,19.89653515625,0.31031954288482666,0.2246456891298294,-0.35811975598335266
1683885712379409000,19.913408935546876,0.26083946228027344,0.3562871515750885,-0.36453384160995483
1683885712396279800,19.93027978515625,0.20876319706439972,0.45723262429237366,-0.37858372926712036
1683885712413152800,19.94715283203125,0.1488984078168869,0.48029279708862305,-0.4153883755207062
1683885712430023700,19.964023681640626,0.09529497474431992,0.3917173445224762,-0.46181413531303406
1683885712446898400,19.9808984375,0.04993823543190956,0.2301434874534607,-0.46334129571914673
1683885712463769000,19.99776904296875,0.035124752670526505,0.09376781433820724,-0.3491095006465912
1683885712480642000,20.01464208984375,0.0835358202457428,-0.014966198243200779,-0.12400564551353455
1683885712497508000,20.031508056640625,0.13973543047904968,-0.18157969415187836,0.13179416954517365
1683885712514387700,20.0483876953125,0.12018773704767227,-0.3119994103908539,0.32589662075042725
1683885712531258400,20.06525830078125,0.020311269909143448,-0.29504790902137756,0.4358523488044739
1683885712548131300,20.08213134765625,-0.128434419631958,-0.20311269164085388,0.5161811113357544
1683885712565000400,20.09900048828125,-0.29764407873153687,-0.13790282607078552,0.5618433356285095
1683885712581879600,20.115879638671874,-0.4740314185619354,-0.06902777403593063,0.5299255847930908
1683885712598738000,20.132738037109377,-0.6627888083457947,0.06933320313692093,0.43386703729629517
1683885712615620600,20.14962060546875,-0.8275696635246277,0.2025018334388733,0.29397889971733093
1683885712632492300,20.1664921875,-0.8888089060783386,0.25992316007614136,0.1667662113904953
1683885712649366800,20.18336669921875,-0.8556694984436035,0.24877487123012543,0.1137736514210701
1683885712666237000,20.20023681640625,-0.7443392872810364,0.168751522898674,0.13255776464939117
1683885712683110000,20.21710986328125,-0.545655369758606,-0.038179077208042145,0.21319197118282318
1683885712699984400,20.233984375,-0.2929098904132843,-0.2782491147518158,0.34697145223617554
1683885712716855600,20.25085546875,-0.08704829961061478,-0.42180246114730835,0.5015203952789307
1683885712733726200,20.267726318359376,0.032070424407720566,-0.48838675022125244,0.6207917928695679
1683885712750582300,20.284582275390626,0.06200282275676727,-0.46043968200683594,0.6411030888557434
1683885712767471000,20.30147119140625,0.018478672951459885,-0.3306308090686798,0.5546656250953674
1683885712784344800,20.3183447265625,-0.07880161702632904,-0.19165897369384766,0.4386012554168701
1683885712801215700,20.3352158203125,-0.164170041680336,-0.1186605766415596,0.3572034537792206
1683885712818077700,20.35207763671875,-0.1771509200334549,-0.08155050873756409,0.32650747895240784
1683885712834960400,20.36896044921875,-0.25473082065582275,0.2525927722454071,0.3695734739303589
1683885712851832000,20.38583203125,-0.6762278079986572,1.3842206001281738,0.7357872128486633
1683885712868704300,20.402704345703125,-0.4967861473560333,1.2793045043945312,0.48059824109077454
1683885712885577700,20.41957763671875,-0.39904773235321045,0.9553932547569275,0.244804248213768
1683885712902440200,20.436440185546875,-0.27779096364974976,0.7426594495773315,0.07116580009460449
1683885712919316700,20.453316650390626,-0.22449298202991486,0.4732678532600403,-0.09651670604944229
1683885712936194300,20.4701943359375,-0.13240504264831543,0.01771509274840355,-0.22143864631652832
1683885712953067000,20.48706689453125,-0.016951510682702065,-0.3448334336280823,-0.32528573274612427
1683885712969939200,20.503939208984374,0.22800545394420624,-0.5816964507102966,-0.3338378667831421
1683885712986813000,20.52081298828125,0.44165557622909546,-0.851393461227417,-0.28680121898651123
1683885713003685600,20.537685546875,0.5597052574157715,-0.9651671051979065,-0.27000242471694946
1683885713020552000,20.554552001953127,0.5783366560935974,-0.8355109095573425,-0.21212296187877655
1683885713037430800,20.5714306640625,0.5435173511505127,-0.5186246037483215,-0.07895433157682419
1683885713054291500,20.58829150390625,0.5360342264175415,-0.3020728528499603,-0.020005837082862854
1683885713071176000,20.605176025390627,0.47708576917648315,-0.14034628868103027,-0.03145955875515938
1683885713088042800,20.622042724609376,0.32986724376678467,0.09453139454126358,-0.10155634582042694
1683885713104915000,20.6389150390625,0.2200642079114914,0.16630806028842926,-0.24068090319633484
1683885713121794000,20.6557939453125,0.16371189057826996,0.14538592100143433,-0.3816380500793457
1683885713138662400,20.672662353515626,0.13057245314121246,0.1973094791173935,-0.4665483236312866
1683885713155534800,20.689534912109377,0.1333213448524475,0.2344195395708084,-0.49464812874794006
1683885713172407000,20.706406982421875,0.16203200817108154,0.1950187236070633,-0.498924195766449
1683885713189270000,20.72327001953125,0.2076941877603531,0.1290452778339386,-0.4784601926803589
1683885713206151400,20.7401513671875,0.25824329257011414,0.1007927656173706,-0.4335615932941437
1683885713223024400,20.7570244140625,0.29077184200286865,0.1186605766415596,-0.3911064863204956
1683885713239896000,20.77389599609375,0.2929098904132843,0.18860463798046112,-0.3810271918773651
1683885713256769800,20.790769775390626,0.2817615866661072,0.2750420868396759,-0.39385536313056946
1683885713273640700,20.807640625,0.27290403842926025,0.29184088110923767,-0.41401392221450806
1683885713290513700,20.824513671875,0.2658790946006775,0.28130343556404114,-0.4245513379573822
1683885713307385300,20.84138525390625,0.2535090744495392,0.26511552929878235,-0.4331034719944
1683885713324259000,20.858259033203126,0.23625212907791138,0.25641068816185,-0.43478333950042725
1683885713341127700,20.875127685546875,0.22296582162380219,0.2782491147518158,-0.4086688458919525
1683885713358005200,20.892005126953126,0.22113321721553802,0.29565876722335815,-0.3556762933731079
1683885713374871800,20.908871826171875,0.21334469318389893,0.2373211532831192,-0.2848159074783325
1683885713391751200,20.925751220703123,0.19532416760921478,0.05910121276974678,-0.21090123057365417
1683885713408619300,20.942619384765624,0.18295414745807648,-0.14614951610565186,-0.13637566566467285
1683885713425492200,20.9594921875,0.1670716404914856,-0.28649580478668213,-0.032070424407720566
1683885713442364000,20.976364013671876,0.11194105446338654,-0.35705074667930603,0.10430523753166199
1683885713459238000,20.99323779296875,0.015882495790719986,-0.394008070230484,0.23579397797584534
1683885713476108500,21.010108642578125,-0.1189660057425499,-0.413097620010376,0.34177911281585693
1683885713492981200,21.026981201171875,-0.29168814420700073,-0.34636059403419495,0.42088615894317627
1683885713509853000,21.04385302734375,-0.484416127204895,-0.1820378452539444,0.46731191873550415
1683885713526727200,21.06072705078125,-0.6690501570701599,0.012675453908741474,0.44806966185569763
1683885713543597600,21.07759765625,-0.841619610786438,0.18860463798046112,0.34116822481155396
1683885713560470500,21.094470458984375,-0.9529497623443604,0.32757648825645447,0.1915062516927719
